File: CB_UV_VIS_20mM.txt
"20-30mM-CB20mM - RawData"
"Wavelength nm."	"Abs."
300.00	0.1379
303.00	0.1425
306.00	0.1462
309.00	0.1523
312.00	0.1574
315.00	0.1635
318.00	0.1705
321.00	0.1765
324.00	0.1821
327.00	0.1881
330.00	0.1937
333.00	0.1975
336.00	0.2038
339.00	0.2103
342.00	0.2152
345.00	0.2204
348.00	0.2243
351.00	0.2276
354.00	0.2306
357.00	0.2338
360.00	0.2364
363.00	0.2377
366.00	0.2412
369.00	0.2451
372.00	0.2486
375.00	0.2503
378.00	0.2518
381.00	0.2549
384.00	0.2591
387.00	0.2634
390.00	0.2672
393.00	0.2715
396.00	0.2747
399.00	0.2776
402.00	0.2811
405.00	0.2859
408.00	0.2905
411.00	0.2947
414.00	0.2978
417.00	0.3002
420.00	0.3009
423.00	0.3000
426.00	0.2987
429.00	0.2977
432.00	0.2970
435.00	0.2966
438.00	0.2950
441.00	0.2926
444.00	0.2909
447.00	0.2890
450.00	0.2876
453.00	0.2879
456.00	0.2888
459.00	0.2902
462.00	0.2922
465.00	0.2936
468.00	0.2952
471.00	0.2964
474.00	0.2975
477.00	0.2991
480.00	0.3005
483.00	0.3016
486.00	0.3023
489.00	0.3024
492.00	0.3022
495.00	0.3022
498.00	0.3021
501.00	0.3022
504.00	0.3018
507.00	0.3009
510.00	0.2994
513.00	0.2972
516.00	0.2946
519.00	0.2916
522.00	0.2887
525.00	0.2852
528.00	0.2819
531.00	0.2795
534.00	0.2756
537.00	0.2720
540.00	0.2685
543.00	0.2653
546.00	0.2627
549.00	0.2595
552.00	0.2567
555.00	0.2534
558.00	0.2507
561.00	0.2480
564.00	0.2453
567.00	0.2423
570.00	0.2395
573.00	0.2375
576.00	0.2334
579.00	0.2293
582.00	0.2260
585.00	0.2222
588.00	0.2186
591.00	0.2147
594.00	0.2108
597.00	0.2070
600.00	0.2034
603.00	0.1998
606.00	0.1962
609.00	0.1930
612.00	0.1898
615.00	0.1865
618.00	0.1842
621.00	0.1814
624.00	0.1797
627.00	0.1779
630.00	0.1769
633.00	0.1750
636.00	0.1729
639.00	0.1722
642.00	0.1714
645.00	0.1708
648.00	0.1703
651.00	0.1704
654.00	0.1705
657.00	0.1706
660.00	0.1706
663.00	0.1706
666.00	0.1704
669.00	0.1704
672.00	0.1720
675.00	0.1724
678.00	0.1727
681.00	0.1732
684.00	0.1742
687.00	0.1748
690.00	0.1748
693.00	0.1758
696.00	0.1760
699.00	0.1759
702.00	0.1762
705.00	0.1770
708.00	0.1773
711.00	0.1780
714.00	0.1785
717.00	0.1783
720.00	0.1786
723.00	0.1789
726.00	0.1781
729.00	0.1787
732.00	0.1802
735.00	0.1811
738.00	0.1814
741.00	0.1824
744.00	0.1832
747.00	0.1836
750.00	0.1847
753.00	0.1858
756.00	0.1867
759.00	0.1871
762.00	0.1879
765.00	0.1891
768.00	0.1889
771.00	0.1883
774.00	0.1881
777.00	0.1882
780.00	0.1867
783.00	0.1844
786.00	0.1841
789.00	0.1837
792.00	0.1819
795.00	0.1794
798.00	0.1765
801.00	0.1740
804.00	0.1721
807.00	0.1700
810.00	0.1684
813.00	0.1670
816.00	0.1660
819.00	0.1655
822.00	0.1651
825.00	0.1650
828.00	0.1649
831.00	0.1651
834.00	0.1653
837.00	0.1656
840.00	0.1659
843.00	0.1670
846.00	0.1681
849.00	0.1690
852.00	0.1698
855.00	0.1705
858.00	0.1707
861.00	0.1703
864.00	0.1701
867.00	0.1700
870.00	0.1695
873.00	0.1689
876.00	0.1688
879.00	0.1673
882.00	0.1654
885.00	0.1631
888.00	0.1608
891.00	0.1580
894.00	0.1553
897.00	0.1525
900.00	0.1499
903.00	0.1473
906.00	0.1448
909.00	0.1424
912.00	0.1398
915.00	0.1376
918.00	0.1354
921.00	0.1334
924.00	0.1308
927.00	0.1288
930.00	0.1267
933.00	0.1244
936.00	0.1224
939.00	0.1207
942.00	0.1185
945.00	0.1164
948.00	0.1147
951.00	0.1128
954.00	0.1106
957.00	0.1088
960.00	0.1071
963.00	0.1053
966.00	0.1033
969.00	0.1014
972.00	0.0998
975.00	0.0980
978.00	0.0962
981.00	0.0946
984.00	0.0928
987.00	0.0912
990.00	0.0897
993.00	0.0880
996.00	0.0866
999.00	0.0848
1002.00	0.0830
1005.00	0.0816
1008.00	0.0802
1011.00	0.0786
1014.00	0.0772
1017.00	0.0758
1020.00	0.0746
1023.00	0.0731
1026.00	0.0717
1029.00	0.0702
1032.00	0.0688
1035.00	0.0679
1038.00	0.0665
1041.00	0.0654
1044.00	0.0641
1047.00	0.0628
1050.00	0.0622
1053.00	0.0612
1056.00	0.0603
1059.00	0.0599
1062.00	0.0591
1065.00	0.0576
1068.00	0.0571
1071.00	0.0561
1074.00	0.0549
1077.00	0.0540
1080.00	0.0534
1083.00	0.0528
1086.00	0.0522
1089.00	0.0516
1092.00	0.0513
1095.00	0.0506
1098.00	0.0502
1101.00	0.0500
1104.00	0.0494
1107.00	0.0488
1110.00	0.0477
1113.00	0.0478
1116.00	0.0474
1119.00	0.0469
1122.00	0.0465
1125.00	0.0461
1128.00	0.0458
1131.00	0.0454
1134.00	0.0452
1137.00	0.0451
1140.00	0.0450
1143.00	0.0445
1146.00	0.0446
1149.00	0.0445
1152.00	0.0441
1155.00	0.0439
1158.00	0.0441
1161.00	0.0439
1164.00	0.0438
1167.00	0.0432
1170.00	0.0432
1173.00	0.0440
1176.00	0.0436
1179.00	0.0438
1182.00	0.0438
1185.00	0.0434
1188.00	0.0438
1191.00	0.0439
1194.00	0.0441
1197.00	0.0441
1200.00	0.0435
1203.00	0.0441
1206.00	0.0444
1209.00	0.0440
1212.00	0.0443
1215.00	0.0437
1218.00	0.0439
1221.00	0.0447
1224.00	0.0449
1227.00	0.0451
1230.00	0.0448
1233.00	0.0449
1236.00	0.0454
1239.00	0.0456
1242.00	0.0453
1245.00	0.0455
1248.00	0.0465
1251.00	0.0460
1254.00	0.0460
1257.00	0.0460
1260.00	0.0463
1263.00	0.0464
1266.00	0.0468
1269.00	0.0471
1272.00	0.0475
1275.00	0.0475
1278.00	0.0478
1281.00	0.0479
1284.00	0.0483
1287.00	0.0484
1290.00	0.0481
1293.00	0.0484
1296.00	0.0493
1299.00	0.0498
1302.00	0.0503
1305.00	0.0506
1308.00	0.0503
1311.00	0.0506
1314.00	0.0508
1317.00	0.0512
1320.00	0.0518
1323.00	0.0521
1326.00	0.0519
1329.00	0.0520
1332.00	0.0524
1335.00	0.0527
1338.00	0.0533
1341.00	0.0536
1344.00	0.0543
1347.00	0.0545
1350.00	0.0551
1353.00	0.0566
1356.00	0.0560
1359.00	0.0564
1362.00	0.0569
1365.00	0.0573
1368.00	0.0579
1371.00	0.0584
1374.00	0.0587
1377.00	0.0592
1380.00	0.0601
1383.00	0.0607
1386.00	0.0609
1389.00	0.0613
1392.00	0.0621
1395.00	0.0625
1398.00	0.0630
1401.00	0.0636
1404.00	0.0643
1407.00	0.0651
1410.00	0.0655
1413.00	0.0659
1416.00	0.0669
1419.00	0.0674
1422.00	0.0678
1425.00	0.0683
1428.00	0.0690
1431.00	0.0696
1434.00	0.0702
1437.00	0.0709
1440.00	0.0714
1443.00	0.0710
1446.00	0.0716
1449.00	0.0729
1452.00	0.0736
1455.00	0.0740
1458.00	0.0750
1461.00	0.0755
1464.00	0.0761
1467.00	0.0768
1470.00	0.0776
1473.00	0.0784
1476.00	0.0783
1479.00	0.0789
1482.00	0.0797
1485.00	0.0805
1488.00	0.0811
1491.00	0.0818
1494.00	0.0823
1497.00	0.0834
1500.00	0.0838
1503.00	0.0846
1506.00	0.0854
1509.00	0.0861
1512.00	0.0865
1515.00	0.0870
1518.00	0.0880
1521.00	0.0884
1524.00	0.0890
1527.00	0.0900
1530.00	0.0907
1533.00	0.0915
1536.00	0.0921
1539.00	0.0926
1542.00	0.0933
1545.00	0.0944
1548.00	0.0950
1551.00	0.0956
1554.00	0.0966
1557.00	0.0972
1560.00	0.0978
1563.00	0.0985
1566.00	0.0991
1569.00	0.1000
1572.00	0.1007
1575.00	0.1012
1578.00	0.1023
1581.00	0.1030
1584.00	0.1037
1587.00	0.1047
1590.00	0.1052
1593.00	0.1059
1596.00	0.1067
1599.00	0.1074
1602.00	0.1084
1605.00	0.1091
1608.00	0.1098
1611.00	0.1104
1614.00	0.1108
1617.00	0.1121
1620.00	0.1128
1623.00	0.1132
1626.00	0.1145
1629.00	0.1148
1632.00	0.1152
1635.00	0.1158
1638.00	0.1164
1641.00	0.1168
1644.00	0.1165
1647.00	0.1166
1650.00	0.1172
1653.00	0.1172
1656.00	0.1172
1659.00	0.1173
1662.00	0.1180
1665.00	0.1188
1668.00	0.1193
1671.00	0.1197
1674.00	0.1206
1677.00	0.1213
1680.00	0.1216
1683.00	0.1225
1686.00	0.1230
1689.00	0.1235
1692.00	0.1237
1695.00	0.1239
1698.00	0.1251
1701.00	0.1259
1704.00	0.1260
1707.00	0.1266
1710.00	0.1276
1713.00	0.1287
1716.00	0.1293
1719.00	0.1293
1722.00	0.1299
1725.00	0.1304
1728.00	0.1308
1731.00	0.1314
1734.00	0.1319
1737.00	0.1324
1740.00	0.1330
1743.00	0.1339
1746.00	0.1343
1749.00	0.1345
1752.00	0.1354
1755.00	0.1360
1758.00	0.1363
1761.00	0.1363
1764.00	0.1374
1767.00	0.1381
1770.00	0.1383
1773.00	0.1389
1776.00	0.1396
1779.00	0.1394
1782.00	0.1398
1785.00	0.1409
1788.00	0.1415
1791.00	0.1418
1794.00	0.1423
1797.00	0.1431
1800.00	0.1432
1803.00	0.1434
1806.00	0.1440
1809.00	0.1447
1812.00	0.1450
1815.00	0.1451
1818.00	0.1454
1821.00	0.1462
1824.00	0.1469
1827.00	0.1475
1830.00	0.1483
1833.00	0.1489
1836.00	0.1490
1839.00	0.1490
1842.00	0.1494
1845.00	0.1489
1848.00	0.1482
1851.00	0.1488
1854.00	0.1498
1857.00	0.1510
1860.00	0.1518
1863.00	0.1524
1866.00	0.1525
1869.00	0.1524
1872.00	0.1521
1875.00	0.1526
1878.00	0.1529
1881.00	0.1528
1884.00	0.1530
1887.00	0.1531
1890.00	0.1534
1893.00	0.1540
1896.00	0.1547
1899.00	0.1559
1902.00	0.1572
1905.00	0.1572
1908.00	0.1567
1911.00	0.1563
1914.00	0.1564
1917.00	0.1568
1920.00	0.1569
1923.00	0.1572
1926.00	0.1579
1929.00	0.1581
1932.00	0.1583
1935.00	0.1586
1938.00	0.1591
1941.00	0.1593
1944.00	0.1592
1947.00	0.1595
1950.00	0.1595
1953.00	0.1591
1956.00	0.1597
1959.00	0.1606
1962.00	0.1612
1965.00	0.1610
1968.00	0.1615
1971.00	0.1619
1974.00	0.1617
1977.00	0.1617
1980.00	0.1620
1983.00	0.1623
1986.00	0.1625
1989.00	0.1621
1992.00	0.1627
1995.00	0.1630
1998.00	0.1631
2001.00	0.1638
2004.00	0.1645
2007.00	0.1642
2010.00	0.1644
2013.00	0.1647
2016.00	0.1649
2019.00	0.1647
2022.00	0.1644
2025.00	0.1642
2028.00	0.1640
2031.00	0.1641
2034.00	0.1645
2037.00	0.1651
2040.00	0.1650
2043.00	0.1649
2046.00	0.1659
2049.00	0.1657
2052.00	0.1658
2055.00	0.1666
2058.00	0.1669
2061.00	0.1668
2064.00	0.1663
2067.00	0.1662
2070.00	0.1669
2073.00	0.1668
2076.00	0.1667
2079.00	0.1672
2082.00	0.1674
2085.00	0.1671
2088.00	0.1676
2091.00	0.1674
2094.00	0.1672
2097.00	0.1665
2100.00	0.1671
2103.00	0.1678
2106.00	0.1675
2109.00	0.1674
2112.00	0.1681
2115.00	0.1681
2118.00	0.1678
2121.00	0.1676
2124.00	0.1676
2127.00	0.1680
2130.00	0.1677
2133.00	0.1679
2136.00	0.1685
2139.00	0.1682
2142.00	0.1679
2145.00	0.1686
2148.00	0.1683
2151.00	0.1672
2154.00	0.1675
2157.00	0.1672
2160.00	0.1677
2163.00	0.1676
2166.00	0.1682
2169.00	0.1685
2172.00	0.1680
2175.00	0.1682
2178.00	0.1686
2181.00	0.1686
2184.00	0.1681
2187.00	0.1673
2190.00	0.1679
2193.00	0.1681
2196.00	0.1668
2199.00	0.1672
2202.00	0.1670
2205.00	0.1667
2208.00	0.1661
2211.00	0.1667
2214.00	0.1663
2217.00	0.1661
2220.00	0.1665
2223.00	0.1665
2226.00	0.1667
2229.00	0.1665
2232.00	0.1666
2235.00	0.1667
2238.00	0.1663
2241.00	0.1666
2244.00	0.1664
2247.00	0.1664
2250.00	0.1663
2253.00	0.1659
2256.00	0.1662
2259.00	0.1670
2262.00	0.1670
2265.00	0.1671
2268.00	0.1666
2271.00	0.1664
2274.00	0.1662
2277.00	0.1667
2280.00	0.1665
2283.00	0.1660
2286.00	0.1660
2289.00	0.1666
2292.00	0.1672
2295.00	0.1671
2298.00	0.1666
2301.00	0.1664
2304.00	0.1661
2307.00	0.1663
2310.00	0.1664
2313.00	0.1665
2316.00	0.1659
2319.00	0.1659
2322.00	0.1662
2325.00	0.1660
2328.00	0.1653
2331.00	0.1657
2334.00	0.1662
2337.00	0.1654
2340.00	0.1644
2343.00	0.1647
2346.00	0.1650
2349.00	0.1642
2352.00	0.1648
2355.00	0.1655
2358.00	0.1652
2361.00	0.1651
2364.00	0.1647
2367.00	0.1643
2370.00	0.1648
2373.00	0.1646
2376.00	0.1638
2379.00	0.1634
2382.00	0.1634
2385.00	0.1640
2388.00	0.1642
2391.00	0.1645
2394.00	0.1640
2397.00	0.1639
2400.00	0.1644
2403.00	0.1640
2406.00	0.1642
2409.00	0.1640
2412.00	0.1632
2415.00	0.1631
2418.00	0.1632
2421.00	0.1627
2424.00	0.1627
2427.00	0.1624
2430.00	0.1619
2433.00	0.1613
2436.00	0.1623
2439.00	0.1621
2442.00	0.1621
2445.00	0.1620
2448.00	0.1615
2451.00	0.1615
2454.00	0.1617
2457.00	0.1611
2460.00	0.1610
2463.00	0.1607
2466.00	0.1607
2469.00	0.1611
2472.00	0.1606
2475.00	0.1606
2478.00	0.1601
2481.00	0.1593
2484.00	0.1589
2487.00	0.1590
2490.00	0.1589
2493.00	0.1593
2496.00	0.1593
2499.00	0.1586
2502.00	0.1584
2505.00	0.1584
2508.00	0.1584
2511.00	0.1587
2514.00	0.1583
2517.00	0.1583
2520.00	0.1584
2523.00	0.1582
2526.00	0.1577
2529.00	0.1574
2532.00	0.1567
2535.00	0.1572
2538.00	0.1571
2541.00	0.1564
2544.00	0.1563
2547.00	0.1557
2550.00	0.1556
2553.00	0.1554
2556.00	0.1551
2559.00	0.1549
2562.00	0.1558
2565.00	0.1559
2568.00	0.1552
2571.00	0.1553
2574.00	0.1564
2577.00	0.1572
2580.00	0.1562
2583.00	0.1535
2586.00	0.1522
2589.00	0.1525
2592.00	0.1529
2595.00	0.1534
2598.00	0.1531
2601.00	0.1516
2604.00	0.1499
2607.00	0.1481
2610.00	0.1493
2613.00	0.1511
2616.00	0.1527
2619.00	0.1528
2622.00	0.1513
2625.00	0.1505
2628.00	0.1507
2631.00	0.1513
2634.00	0.1508
2637.00	0.1505
2640.00	0.1503
2643.00	0.1500
2646.00	0.1497
2649.00	0.1495
2652.00	0.1497
2655.00	0.1484
2658.00	0.1475
2661.00	0.1470
2664.00	0.1461
2667.00	0.1466
2670.00	0.1485
2673.00	0.1501
2676.00	0.1518
2679.00	0.1495
2682.00	0.1467
2685.00	0.1448
2688.00	0.1443
2691.00	0.1450
2694.00	0.1489
2697.00	0.1519
2700.00	0.1630
2703.00	0.1705
2706.00	0.1819
2709.00	0.1873
2712.00	0.1972
2715.00	0.2029
2718.00	0.2072
2721.00	0.2096
2724.00	0.2100
2727.00	0.2058
2730.00	0.1988
2733.00	0.1947
2736.00	0.1897
2739.00	0.1828
2742.00	0.1730
2745.00	0.1635
2748.00	0.1561
2751.00	0.1506
2754.00	0.1469
2757.00	0.1421
2760.00	0.1357
2763.00	0.1323
2766.00	0.1278
2769.00	0.1259
2772.00	0.1229
2775.00	0.1226
2778.00	0.1220
2781.00	0.1212
2784.00	0.1214
2787.00	0.1204
2790.00	0.1201
2793.00	0.1204
2796.00	0.1193
2799.00	0.1201
2802.00	0.1207
2805.00	0.1210
2808.00	0.1212
2811.00	0.1213
2814.00	0.1218
2817.00	0.1229
2820.00	0.1236
2823.00	0.1246
2826.00	0.1254
2829.00	0.1264
2832.00	0.1271
2835.00	0.1280
2838.00	0.1285
2841.00	0.1291
2844.00	0.1299
2847.00	0.1306
2850.00	0.1307
2853.00	0.1311
2856.00	0.1314
2859.00	0.1317
2862.00	0.1321
2865.00	0.1323
2868.00	0.1326
2871.00	0.1328
2874.00	0.1330
2877.00	0.1331
2880.00	0.1330
2883.00	0.1334
2886.00	0.1335
2889.00	0.1337
2892.00	0.1334
2895.00	0.1331
2898.00	0.1331
2901.00	0.1330
2904.00	0.1334
2907.00	0.1335
2910.00	0.1339
2913.00	0.1337
2916.00	0.1336
2919.00	0.1335
2922.00	0.1334
2925.00	0.1331
2928.00	0.1331
2931.00	0.1328
2934.00	0.1325
2937.00	0.1323
2940.00	0.1322
2943.00	0.1326
2946.00	0.1326
2949.00	0.1325
2952.00	0.1323
2955.00	0.1322
2958.00	0.1321
2961.00	0.1321
2964.00	0.1325
2967.00	0.1325
2970.00	0.1324
2973.00	0.1320
2976.00	0.1322
2979.00	0.1316
2982.00	0.1318
2985.00	0.1316
2988.00	0.1312
2991.00	0.1316
2994.00	0.1318
2997.00	0.1331
3000.00	0.1343
3003.00	0.1347
3006.00	0.1350
3009.00	0.1355
3012.00	0.1352
3015.00	0.1349
3018.00	0.1348
3021.00	0.1347
3024.00	0.1345
3027.00	0.1346
3030.00	0.1345
3033.00	0.1343
3036.00	0.1339
3039.00	0.1337
3042.00	0.1333
3045.00	0.1331
3048.00	0.1328
3051.00	0.1328
3054.00	0.1329
3057.00	0.1330
3060.00	0.1332
3063.00	0.1332
3066.00	0.1333
3069.00	0.1331
3072.00	0.1332
3075.00	0.1328
3078.00	0.1324
3081.00	0.1321
3084.00	0.1317
3087.00	0.1313
3090.00	0.1312
3093.00	0.1311
3096.00	0.1310
3099.00	0.1310
3102.00	0.1310
3105.00	0.1314
3108.00	0.1313
3111.00	0.1311
3114.00	0.1308
3117.00	0.1306
3120.00	0.1302
3123.00	0.1296
3126.00	0.1295
3129.00	0.1296
3132.00	0.1294
3135.00	0.1290
3138.00	0.1287
3141.00	0.1285
3144.00	0.1281
3147.00	0.1276
3150.00	0.1277
3153.00	0.1277
3156.00	0.1272
3159.00	0.1271
3162.00	0.1269
3165.00	0.1268
3168.00	0.1262
3171.00	0.1260
3174.00	0.1268
3177.00	0.1270
3180.00	0.1269
3183.00	0.1272
3186.00	0.1280
3189.00	0.1283
3192.00	0.1273
3195.00	0.1268
3198.00	0.1279
3201.00	0.1278
3204.00	0.1271
3207.00	0.1259
3210.00	0.1261
3213.00	0.1263
3216.00	0.1257
3219.00	0.1248
3222.00	0.1235
3225.00	0.1255
3228.00	0.1265
3231.00	0.1268
3234.00	0.1254
3237.00	0.1242
3240.00	0.1237
3243.00	0.1221
3246.00	0.1211
3249.00	0.1196
3252.00	0.1195
3255.00	0.1209
3258.00	0.1230
3261.00	0.1221
3264.00	0.1210
3267.00	0.1224
3270.00	0.1196
3273.00	0.1159
3276.00	0.1148
3279.00	0.1180
3282.00	0.1193
3285.00	0.1229
3288.00	0.1283
3291.00	0.1312
3294.00	0.1360
3297.00	0.1398
3300.00	0.1406