File: CB_UV_VIS_30mM.txt
"20-30mM-CB30mM - RawData"
"Wavelength nm."	"Abs."
300.00	0.1420
303.00	0.1470
306.00	0.1506
309.00	0.1555
312.00	0.1599
315.00	0.1652
318.00	0.1707
321.00	0.1754
324.00	0.1801
327.00	0.1849
330.00	0.1885
333.00	0.1913
336.00	0.1966
339.00	0.2019
342.00	0.2065
345.00	0.2109
348.00	0.2148
351.00	0.2183
354.00	0.2219
357.00	0.2249
360.00	0.2276
363.00	0.2297
366.00	0.2346
369.00	0.2393
372.00	0.2441
375.00	0.2479
378.00	0.2513
381.00	0.2560
384.00	0.2621
387.00	0.2690
390.00	0.2738
393.00	0.2794
396.00	0.2843
399.00	0.2879
402.00	0.2923
405.00	0.2977
408.00	0.3030
411.00	0.3077
414.00	0.3108
417.00	0.3122
420.00	0.3118
423.00	0.3094
426.00	0.3058
429.00	0.3021
432.00	0.2992
435.00	0.2969
438.00	0.2938
441.00	0.2899
444.00	0.2862
447.00	0.2830
450.00	0.2807
453.00	0.2797
456.00	0.2796
459.00	0.2801
462.00	0.2817
465.00	0.2833
468.00	0.2848
471.00	0.2857
474.00	0.2869
477.00	0.2890
480.00	0.2903
483.00	0.2914
486.00	0.2924
489.00	0.2930
492.00	0.2936
495.00	0.2943
498.00	0.2946
501.00	0.2949
504.00	0.2949
507.00	0.2945
510.00	0.2939
513.00	0.2932
516.00	0.2913
519.00	0.2896
522.00	0.2879
525.00	0.2853
528.00	0.2826
531.00	0.2812
534.00	0.2780
537.00	0.2751
540.00	0.2727
543.00	0.2704
546.00	0.2677
549.00	0.2649
552.00	0.2627
555.00	0.2599
558.00	0.2570
561.00	0.2541
564.00	0.2518
567.00	0.2493
570.00	0.2459
573.00	0.2443
576.00	0.2408
579.00	0.2366
582.00	0.2334
585.00	0.2299
588.00	0.2263
591.00	0.2225
594.00	0.2188
597.00	0.2149
600.00	0.2110
603.00	0.2078
606.00	0.2042
609.00	0.2009
612.00	0.1984
615.00	0.1947
618.00	0.1928
621.00	0.1901
624.00	0.1886
627.00	0.1859
630.00	0.1855
633.00	0.1839
636.00	0.1812
639.00	0.1807
642.00	0.1799
645.00	0.1795
648.00	0.1790
651.00	0.1790
654.00	0.1792
657.00	0.1790
660.00	0.1793
663.00	0.1797
666.00	0.1803
669.00	0.1805
672.00	0.1824
675.00	0.1824
678.00	0.1824
681.00	0.1833
684.00	0.1844
687.00	0.1850
690.00	0.1851
693.00	0.1855
696.00	0.1858
699.00	0.1860
702.00	0.1866
705.00	0.1869
708.00	0.1873
711.00	0.1877
714.00	0.1882
717.00	0.1881
720.00	0.1886
723.00	0.1892
726.00	0.1877
729.00	0.1890
732.00	0.1902
735.00	0.1915
738.00	0.1923
741.00	0.1943
744.00	0.1952
747.00	0.1967
750.00	0.1986
753.00	0.1996
756.00	0.2004
759.00	0.2018
762.00	0.2039
765.00	0.2045
768.00	0.2047
771.00	0.2039
774.00	0.2033
777.00	0.2023
780.00	0.2010
783.00	0.1981
786.00	0.1978
789.00	0.1969
792.00	0.1947
795.00	0.1914
798.00	0.1874
801.00	0.1841
804.00	0.1815
807.00	0.1792
810.00	0.1776
813.00	0.1754
816.00	0.1742
819.00	0.1738
822.00	0.1735
825.00	0.1732
828.00	0.1732
831.00	0.1740
834.00	0.1746
837.00	0.1755
840.00	0.1765
843.00	0.1783
846.00	0.1807
849.00	0.1826
852.00	0.1843
855.00	0.1853
858.00	0.1855
861.00	0.1856
864.00	0.1857
867.00	0.1856
870.00	0.1852
873.00	0.1844
876.00	0.1839
879.00	0.1821
882.00	0.1795
885.00	0.1768
888.00	0.1735
891.00	0.1699
894.00	0.1666
897.00	0.1634
900.00	0.1603
903.00	0.1569
906.00	0.1542
909.00	0.1514
912.00	0.1484
915.00	0.1454
918.00	0.1430
921.00	0.1408
924.00	0.1376
927.00	0.1351
930.00	0.1329
933.00	0.1307
936.00	0.1286
939.00	0.1268
942.00	0.1241
945.00	0.1217
948.00	0.1195
951.00	0.1177
954.00	0.1155
957.00	0.1134
960.00	0.1114
963.00	0.1097
966.00	0.1078
969.00	0.1056
972.00	0.1039
975.00	0.1021
978.00	0.1001
981.00	0.0984
984.00	0.0963
987.00	0.0948
990.00	0.0933
993.00	0.0916
996.00	0.0902
999.00	0.0881
1002.00	0.0863
1005.00	0.0850
1008.00	0.0836
1011.00	0.0820
1014.00	0.0803
1017.00	0.0789
1020.00	0.0776
1023.00	0.0763
1026.00	0.0750
1029.00	0.0733
1032.00	0.0721
1035.00	0.0710
1038.00	0.0695
1041.00	0.0686
1044.00	0.0673
1047.00	0.0656
1050.00	0.0650
1053.00	0.0639
1056.00	0.0630
1059.00	0.0624
1062.00	0.0611
1065.00	0.0603
1068.00	0.0598
1071.00	0.0590
1074.00	0.0578
1077.00	0.0568
1080.00	0.0565
1083.00	0.0558
1086.00	0.0550
1089.00	0.0543
1092.00	0.0539
1095.00	0.0530
1098.00	0.0526
1101.00	0.0526
1104.00	0.0517
1107.00	0.0511
1110.00	0.0504
1113.00	0.0501
1116.00	0.0496
1119.00	0.0490
1122.00	0.0490
1125.00	0.0488
1128.00	0.0485
1131.00	0.0480
1134.00	0.0478
1137.00	0.0479
1140.00	0.0477
1143.00	0.0470
1146.00	0.0468
1149.00	0.0471
1152.00	0.0471
1155.00	0.0469
1158.00	0.0466
1161.00	0.0466
1164.00	0.0462
1167.00	0.0459
1170.00	0.0458
1173.00	0.0465
1176.00	0.0460
1179.00	0.0462
1182.00	0.0461
1185.00	0.0462
1188.00	0.0461
1191.00	0.0461
1194.00	0.0461
1197.00	0.0463
1200.00	0.0458
1203.00	0.0467
1206.00	0.0470
1209.00	0.0464
1212.00	0.0467
1215.00	0.0460
1218.00	0.0462
1221.00	0.0466
1224.00	0.0468
1227.00	0.0470
1230.00	0.0469
1233.00	0.0471
1236.00	0.0476
1239.00	0.0477
1242.00	0.0478
1245.00	0.0482
1248.00	0.0482
1251.00	0.0479
1254.00	0.0480
1257.00	0.0480
1260.00	0.0485
1263.00	0.0487
1266.00	0.0489
1269.00	0.0489
1272.00	0.0492
1275.00	0.0492
1278.00	0.0490
1281.00	0.0496
1284.00	0.0498
1287.00	0.0497
1290.00	0.0496
1293.00	0.0499
1296.00	0.0506
1299.00	0.0510
1302.00	0.0512
1305.00	0.0518
1308.00	0.0518
1311.00	0.0520
1314.00	0.0525
1317.00	0.0526
1320.00	0.0524
1323.00	0.0530
1326.00	0.0538
1329.00	0.0539
1332.00	0.0540
1335.00	0.0544
1338.00	0.0552
1341.00	0.0557
1344.00	0.0555
1347.00	0.0557
1350.00	0.0559
1353.00	0.0574
1356.00	0.0569
1359.00	0.0575
1362.00	0.0583
1365.00	0.0590
1368.00	0.0589
1371.00	0.0590
1374.00	0.0595
1377.00	0.0604
1380.00	0.0610
1383.00	0.0609
1386.00	0.0615
1389.00	0.0620
1392.00	0.0628
1395.00	0.0634
1398.00	0.0631
1401.00	0.0636
1404.00	0.0648
1407.00	0.0652
1410.00	0.0660
1413.00	0.0664
1416.00	0.0671
1419.00	0.0676
1422.00	0.0682
1425.00	0.0685
1428.00	0.0693
1431.00	0.0695
1434.00	0.0704
1437.00	0.0712
1440.00	0.0713
1443.00	0.0708
1446.00	0.0713
1449.00	0.0732
1452.00	0.0739
1455.00	0.0739
1458.00	0.0748
1461.00	0.0754
1464.00	0.0759
1467.00	0.0762
1470.00	0.0770
1473.00	0.0781
1476.00	0.0784
1479.00	0.0786
1482.00	0.0792
1485.00	0.0802
1488.00	0.0810
1491.00	0.0819
1494.00	0.0821
1497.00	0.0829
1500.00	0.0834
1503.00	0.0842
1506.00	0.0850
1509.00	0.0860
1512.00	0.0864
1515.00	0.0870
1518.00	0.0874
1521.00	0.0884
1524.00	0.0893
1527.00	0.0900
1530.00	0.0902
1533.00	0.0906
1536.00	0.0914
1539.00	0.0918
1542.00	0.0922
1545.00	0.0933
1548.00	0.0942
1551.00	0.0949
1554.00	0.0954
1557.00	0.0960
1560.00	0.0966
1563.00	0.0976
1566.00	0.0980
1569.00	0.0986
1572.00	0.0999
1575.00	0.1004
1578.00	0.1012
1581.00	0.1019
1584.00	0.1026
1587.00	0.1037
1590.00	0.1046
1593.00	0.1051
1596.00	0.1056
1599.00	0.1063
1602.00	0.1075
1605.00	0.1082
1608.00	0.1087
1611.00	0.1095
1614.00	0.1105
1617.00	0.1113
1620.00	0.1116
1623.00	0.1123
1626.00	0.1136
1629.00	0.1143
1632.00	0.1144
1635.00	0.1150
1638.00	0.1157
1641.00	0.1158
1644.00	0.1149
1647.00	0.1147
1650.00	0.1147
1653.00	0.1141
1656.00	0.1137
1659.00	0.1141
1662.00	0.1146
1665.00	0.1148
1668.00	0.1154
1671.00	0.1159
1674.00	0.1167
1677.00	0.1172
1680.00	0.1174
1683.00	0.1183
1686.00	0.1189
1689.00	0.1196
1692.00	0.1200
1695.00	0.1200
1698.00	0.1213
1701.00	0.1223
1704.00	0.1220
1707.00	0.1225
1710.00	0.1235
1713.00	0.1247
1716.00	0.1251
1719.00	0.1252
1722.00	0.1259
1725.00	0.1263
1728.00	0.1268
1731.00	0.1277
1734.00	0.1285
1737.00	0.1291
1740.00	0.1292
1743.00	0.1303
1746.00	0.1307
1749.00	0.1307
1752.00	0.1313
1755.00	0.1323
1758.00	0.1328
1761.00	0.1327
1764.00	0.1335
1767.00	0.1346
1770.00	0.1351
1773.00	0.1350
1776.00	0.1356
1779.00	0.1360
1782.00	0.1366
1785.00	0.1375
1788.00	0.1381
1791.00	0.1383
1794.00	0.1386
1797.00	0.1391
1800.00	0.1397
1803.00	0.1404
1806.00	0.1407
1809.00	0.1417
1812.00	0.1426
1815.00	0.1421
1818.00	0.1424
1821.00	0.1431
1824.00	0.1438
1827.00	0.1440
1830.00	0.1443
1833.00	0.1450
1836.00	0.1458
1839.00	0.1460
1842.00	0.1465
1845.00	0.1462
1848.00	0.1461
1851.00	0.1465
1854.00	0.1477
1857.00	0.1487
1860.00	0.1491
1863.00	0.1490
1866.00	0.1490
1869.00	0.1492
1872.00	0.1494
1875.00	0.1503
1878.00	0.1507
1881.00	0.1505
1884.00	0.1509
1887.00	0.1512
1890.00	0.1514
1893.00	0.1519
1896.00	0.1521
1899.00	0.1526
1902.00	0.1536
1905.00	0.1548
1908.00	0.1546
1911.00	0.1545
1914.00	0.1542
1917.00	0.1550
1920.00	0.1555
1923.00	0.1556
1926.00	0.1561
1929.00	0.1561
1932.00	0.1556
1935.00	0.1555
1938.00	0.1558
1941.00	0.1568
1944.00	0.1569
1947.00	0.1569
1950.00	0.1572
1953.00	0.1571
1956.00	0.1583
1959.00	0.1586
1962.00	0.1587
1965.00	0.1588
1968.00	0.1591
1971.00	0.1595
1974.00	0.1594
1977.00	0.1597
1980.00	0.1603
1983.00	0.1601
1986.00	0.1606
1989.00	0.1606
1992.00	0.1610
1995.00	0.1607
1998.00	0.1610
2001.00	0.1617
2004.00	0.1616
2007.00	0.1615
2010.00	0.1617
2013.00	0.1618
2016.00	0.1623
2019.00	0.1618
2022.00	0.1620
2025.00	0.1625
2028.00	0.1623
2031.00	0.1627
2034.00	0.1635
2037.00	0.1634
2040.00	0.1632
2043.00	0.1626
2046.00	0.1635
2049.00	0.1636
2052.00	0.1638
2055.00	0.1648
2058.00	0.1647
2061.00	0.1648
2064.00	0.1654
2067.00	0.1654
2070.00	0.1657
2073.00	0.1649
2076.00	0.1641
2079.00	0.1645
2082.00	0.1656
2085.00	0.1659
2088.00	0.1660
2091.00	0.1657
2094.00	0.1660
2097.00	0.1652
2100.00	0.1659
2103.00	0.1668
2106.00	0.1661
2109.00	0.1661
2112.00	0.1663
2115.00	0.1664
2118.00	0.1664
2121.00	0.1660
2124.00	0.1667
2127.00	0.1674
2130.00	0.1674
2133.00	0.1676
2136.00	0.1680
2139.00	0.1671
2142.00	0.1671
2145.00	0.1672
2148.00	0.1671
2151.00	0.1668
2154.00	0.1666
2157.00	0.1664
2160.00	0.1667
2163.00	0.1662
2166.00	0.1668
2169.00	0.1677
2172.00	0.1672
2175.00	0.1665
2178.00	0.1668
2181.00	0.1673
2184.00	0.1675
2187.00	0.1667
2190.00	0.1667
2193.00	0.1670
2196.00	0.1656
2199.00	0.1660
2202.00	0.1659
2205.00	0.1656
2208.00	0.1652
2211.00	0.1656
2214.00	0.1653
2217.00	0.1655
2220.00	0.1656
2223.00	0.1648
2226.00	0.1652
2229.00	0.1645
2232.00	0.1644
2235.00	0.1656
2238.00	0.1652
2241.00	0.1654
2244.00	0.1659
2247.00	0.1662
2250.00	0.1660
2253.00	0.1660
2256.00	0.1658
2259.00	0.1657
2262.00	0.1659
2265.00	0.1663
2268.00	0.1662
2271.00	0.1657
2274.00	0.1650
2277.00	0.1651
2280.00	0.1657
2283.00	0.1655
2286.00	0.1658
2289.00	0.1661
2292.00	0.1655
2295.00	0.1652
2298.00	0.1653
2301.00	0.1658
2304.00	0.1656
2307.00	0.1650
2310.00	0.1651
2313.00	0.1655
2316.00	0.1655
2319.00	0.1654
2322.00	0.1655
2325.00	0.1656
2328.00	0.1652
2331.00	0.1647
2334.00	0.1652
2337.00	0.1647
2340.00	0.1642
2343.00	0.1645
2346.00	0.1647
2349.00	0.1645
2352.00	0.1646
2355.00	0.1647
2358.00	0.1645
2361.00	0.1643
2364.00	0.1640
2367.00	0.1642
2370.00	0.1641
2373.00	0.1630
2376.00	0.1631
2379.00	0.1637
2382.00	0.1628
2385.00	0.1628
2388.00	0.1634
2391.00	0.1632
2394.00	0.1628
2397.00	0.1630
2400.00	0.1631
2403.00	0.1623
2406.00	0.1618
2409.00	0.1616
2412.00	0.1616
2415.00	0.1620
2418.00	0.1628
2421.00	0.1620
2424.00	0.1611
2427.00	0.1611
2430.00	0.1621
2433.00	0.1622
2436.00	0.1619
2439.00	0.1615
2442.00	0.1617
2445.00	0.1616
2448.00	0.1611
2451.00	0.1605
2454.00	0.1612
2457.00	0.1609
2460.00	0.1606
2463.00	0.1602
2466.00	0.1597
2469.00	0.1604
2472.00	0.1603
2475.00	0.1593
2478.00	0.1599
2481.00	0.1593
2484.00	0.1582
2487.00	0.1588
2490.00	0.1590
2493.00	0.1586
2496.00	0.1587
2499.00	0.1578
2502.00	0.1582
2505.00	0.1582
2508.00	0.1577
2511.00	0.1579
2514.00	0.1579
2517.00	0.1580
2520.00	0.1584
2523.00	0.1579
2526.00	0.1570
2529.00	0.1568
2532.00	0.1565
2535.00	0.1565
2538.00	0.1567
2541.00	0.1567
2544.00	0.1561
2547.00	0.1552
2550.00	0.1549
2553.00	0.1543
2556.00	0.1539
2559.00	0.1533
2562.00	0.1540
2565.00	0.1541
2568.00	0.1549
2571.00	0.1551
2574.00	0.1553
2577.00	0.1545
2580.00	0.1540
2583.00	0.1532
2586.00	0.1523
2589.00	0.1520
2592.00	0.1527
2595.00	0.1521
2598.00	0.1513
2601.00	0.1513
2604.00	0.1513
2607.00	0.1514
2610.00	0.1511
2613.00	0.1517
2616.00	0.1524
2619.00	0.1522
2622.00	0.1506
2625.00	0.1500
2628.00	0.1497
2631.00	0.1505
2634.00	0.1504
2637.00	0.1503
2640.00	0.1499
2643.00	0.1490
2646.00	0.1481
2649.00	0.1480
2652.00	0.1481
2655.00	0.1476
2658.00	0.1475
2661.00	0.1467
2664.00	0.1458
2667.00	0.1472
2670.00	0.1494
2673.00	0.1494
2676.00	0.1473
2679.00	0.1443
2682.00	0.1428
2685.00	0.1430
2688.00	0.1435
2691.00	0.1442
2694.00	0.1484
2697.00	0.1521
2700.00	0.1599
2703.00	0.1701
2706.00	0.1810
2709.00	0.1896
2712.00	0.1987
2715.00	0.2054
2718.00	0.2101
2721.00	0.2098
2724.00	0.2083
2727.00	0.2061
2730.00	0.1984
2733.00	0.1940
2736.00	0.1892
2739.00	0.1803
2742.00	0.1719
2745.00	0.1632
2748.00	0.1582
2751.00	0.1534
2754.00	0.1476
2757.00	0.1425
2760.00	0.1390
2763.00	0.1331
2766.00	0.1283
2769.00	0.1254
2772.00	0.1236
2775.00	0.1213
2778.00	0.1206
2781.00	0.1179
2784.00	0.1182
2787.00	0.1184
2790.00	0.1190
2793.00	0.1197
2796.00	0.1197
2799.00	0.1192
2802.00	0.1188
2805.00	0.1190
2808.00	0.1195
2811.00	0.1208
2814.00	0.1213
2817.00	0.1221
2820.00	0.1228
2823.00	0.1231
2826.00	0.1241
2829.00	0.1249
2832.00	0.1261
2835.00	0.1271
2838.00	0.1281
2841.00	0.1288
2844.00	0.1293
2847.00	0.1297
2850.00	0.1303
2853.00	0.1307
2856.00	0.1311
2859.00	0.1314
2862.00	0.1317
2865.00	0.1315
2868.00	0.1319
2871.00	0.1323
2874.00	0.1326
2877.00	0.1329
2880.00	0.1331
2883.00	0.1332
2886.00	0.1335
2889.00	0.1334
2892.00	0.1333
2895.00	0.1330
2898.00	0.1329
2901.00	0.1333
2904.00	0.1336
2907.00	0.1337
2910.00	0.1339
2913.00	0.1336
2916.00	0.1335
2919.00	0.1336
2922.00	0.1337
2925.00	0.1332
2928.00	0.1332
2931.00	0.1327
2934.00	0.1326
2937.00	0.1328
2940.00	0.1327
2943.00	0.1332
2946.00	0.1334
2949.00	0.1334
2952.00	0.1332
2955.00	0.1326
2958.00	0.1323
2961.00	0.1316
2964.00	0.1317
2967.00	0.1321
2970.00	0.1326
2973.00	0.1325
2976.00	0.1325
2979.00	0.1322
2982.00	0.1321
2985.00	0.1319
2988.00	0.1315
2991.00	0.1314
2994.00	0.1317
2997.00	0.1325
3000.00	0.1333
3003.00	0.1332
3006.00	0.1333
3009.00	0.1335
3012.00	0.1333
3015.00	0.1329
3018.00	0.1327
3021.00	0.1327
3024.00	0.1327
3027.00	0.1326
3030.00	0.1325
3033.00	0.1325
3036.00	0.1325
3039.00	0.1325
3042.00	0.1323
3045.00	0.1322
3048.00	0.1319
3051.00	0.1318
3054.00	0.1321
3057.00	0.1319
3060.00	0.1321
3063.00	0.1319
3066.00	0.1320
3069.00	0.1321
3072.00	0.1318
3075.00	0.1319
3078.00	0.1318
3081.00	0.1315
3084.00	0.1306
3087.00	0.1303
3090.00	0.1300
3093.00	0.1298
3096.00	0.1296
3099.00	0.1293
3102.00	0.1294
3105.00	0.1293
3108.00	0.1290
3111.00	0.1285
3114.00	0.1283
3117.00	0.1278
3120.00	0.1272
3123.00	0.1269
3126.00	0.1267
3129.00	0.1268
3132.00	0.1267
3135.00	0.1264
3138.00	0.1266
3141.00	0.1266
3144.00	0.1264
3147.00	0.1261
3150.00	0.1257
3153.00	0.1260
3156.00	0.1247
3159.00	0.1245
3162.00	0.1241
3165.00	0.1248
3168.00	0.1242
3171.00	0.1239
3174.00	0.1247
3177.00	0.1248
3180.00	0.1238
3183.00	0.1238
3186.00	0.1242
3189.00	0.1244
3192.00	0.1235
3195.00	0.1234
3198.00	0.1239
3201.00	0.1230
3204.00	0.1223
3207.00	0.1204
3210.00	0.1219
3213.00	0.1228
3216.00	0.1211
3219.00	0.1226
3222.00	0.1229
3225.00	0.1233
3228.00	0.1223
3231.00	0.1206
3234.00	0.1224
3237.00	0.1210
3240.00	0.1213
3243.00	0.1210
3246.00	0.1191
3249.00	0.1179
3252.00	0.1163
3255.00	0.1171
3258.00	0.1175
3261.00	0.1191
3264.00	0.1208
3267.00	0.1215
3270.00	0.1189
3273.00	0.1138
3276.00	0.1112
3279.00	0.1093
3282.00	0.1106
3285.00	0.1125
3288.00	0.1151
3291.00	0.1173
3294.00	0.1183
3297.00	0.1173
3300.00	0.1155