File: CB_UV_VIS_0mM.txt
"20-30mM-1_CB0mM - RawData"
"Wavelength nm."	"Abs."
300.00	0.0617
303.00	0.0614
306.00	0.0604
309.00	0.0607
312.00	0.0594
315.00	0.0589
318.00	0.0589
321.00	0.0583
324.00	0.0583
327.00	0.0588
330.00	0.0591
333.00	0.0581
336.00	0.0598
339.00	0.0632
342.00	0.0643
345.00	0.0651
348.00	0.0663
351.00	0.0680
354.00	0.0702
357.00	0.0714
360.00	0.0723
363.00	0.0733
366.00	0.0777
369.00	0.0811
372.00	0.0804
375.00	0.0825
378.00	0.0851
381.00	0.0867
384.00	0.0885
387.00	0.0923
390.00	0.0952
393.00	0.0983
396.00	0.1018
399.00	0.1046
402.00	0.1085
405.00	0.1121
408.00	0.1153
411.00	0.1190
414.00	0.1230
417.00	0.1274
420.00	0.1320
423.00	0.1372
426.00	0.1415
429.00	0.1465
432.00	0.1522
435.00	0.1578
438.00	0.1637
441.00	0.1704
444.00	0.1765
447.00	0.1834
450.00	0.1912
453.00	0.1990
456.00	0.2069
459.00	0.2151
462.00	0.2235
465.00	0.2314
468.00	0.2394
471.00	0.2469
474.00	0.2547
477.00	0.2630
480.00	0.2717
483.00	0.2794
486.00	0.2863
489.00	0.2930
492.00	0.2998
495.00	0.3062
498.00	0.3120
501.00	0.3179
504.00	0.3236
507.00	0.3284
510.00	0.3327
513.00	0.3367
516.00	0.3393
519.00	0.3405
522.00	0.3417
525.00	0.3419
528.00	0.3407
531.00	0.3409
534.00	0.3395
537.00	0.3376
540.00	0.3366
543.00	0.3358
546.00	0.3349
549.00	0.3334
552.00	0.3313
555.00	0.3278
558.00	0.3226
561.00	0.3160
564.00	0.3089
567.00	0.3000
570.00	0.2906
573.00	0.2813
576.00	0.2715
579.00	0.2624
582.00	0.2547
585.00	0.2477
588.00	0.2418
591.00	0.2370
594.00	0.2326
597.00	0.2280
600.00	0.2238
603.00	0.2191
606.00	0.2128
609.00	0.2055
612.00	0.1970
615.00	0.1848
618.00	0.1738
621.00	0.1617
624.00	0.1499
627.00	0.1384
630.00	0.1269
633.00	0.1156
636.00	0.1061
639.00	0.0981
642.00	0.0903
645.00	0.0839
648.00	0.0787
651.00	0.0749
654.00	0.0705
657.00	0.0665
660.00	0.0639
663.00	0.0619
666.00	0.0597
669.00	0.0580
672.00	0.0576
675.00	0.0558
678.00	0.0539
681.00	0.0528
684.00	0.0522
687.00	0.0509
690.00	0.0494
693.00	0.0494
696.00	0.0487
699.00	0.0476
702.00	0.0471
705.00	0.0468
708.00	0.0467
711.00	0.0468
714.00	0.0461
717.00	0.0466
720.00	0.0455
723.00	0.0446
726.00	0.0423
729.00	0.0420
732.00	0.0421
735.00	0.0419
738.00	0.0414
741.00	0.0412
744.00	0.0404
747.00	0.0400
750.00	0.0402
753.00	0.0398
756.00	0.0400
759.00	0.0401
762.00	0.0397
765.00	0.0393
768.00	0.0394
771.00	0.0389
774.00	0.0383
777.00	0.0390
780.00	0.0384
783.00	0.0371
786.00	0.0374
789.00	0.0363
792.00	0.0346
795.00	0.0329
798.00	0.0299
801.00	0.0270
804.00	0.0252
807.00	0.0228
810.00	0.0217
813.00	0.0204
816.00	0.0196
819.00	0.0190
822.00	0.0188
825.00	0.0193
828.00	0.0196
831.00	0.0197
834.00	0.0195
837.00	0.0190
840.00	0.0189
843.00	0.0191
846.00	0.0189
849.00	0.0193
852.00	0.0190
855.00	0.0188
858.00	0.0186
861.00	0.0182
864.00	0.0181
867.00	0.0179
870.00	0.0176
873.00	0.0174
876.00	0.0175
879.00	0.0170
882.00	0.0167
885.00	0.0171
888.00	0.0169
891.00	0.0168
894.00	0.0164
897.00	0.0163
900.00	0.0161
903.00	0.0162
906.00	0.0165
909.00	0.0161
912.00	0.0158
915.00	0.0155
918.00	0.0157
921.00	0.0159
924.00	0.0153
927.00	0.0154
930.00	0.0152
933.00	0.0148
936.00	0.0149
939.00	0.0152
942.00	0.0151
945.00	0.0150
948.00	0.0149
951.00	0.0149
954.00	0.0147
957.00	0.0147
960.00	0.0145
963.00	0.0145
966.00	0.0144
969.00	0.0144
972.00	0.0145
975.00	0.0140
978.00	0.0139
981.00	0.0141
984.00	0.0143
987.00	0.0144
990.00	0.0143
993.00	0.0141
996.00	0.0141
999.00	0.0141
1002.00	0.0137
1005.00	0.0137
1008.00	0.0135
1011.00	0.0132
1014.00	0.0132
1017.00	0.0133
1020.00	0.0135
1023.00	0.0131
1026.00	0.0130
1029.00	0.0131
1032.00	0.0134
1035.00	0.0131
1038.00	0.0128
1041.00	0.0131
1044.00	0.0129
1047.00	0.0123
1050.00	0.0125
1053.00	0.0125
1056.00	0.0125
1059.00	0.0128
1062.00	0.0127
1065.00	0.0127
1068.00	0.0130
1071.00	0.0119
1074.00	0.0118
1077.00	0.0122
1080.00	0.0120
1083.00	0.0120
1086.00	0.0119
1089.00	0.0120
1092.00	0.0120
1095.00	0.0117
1098.00	0.0121
1101.00	0.0121
1104.00	0.0117
1107.00	0.0118
1110.00	0.0116
1113.00	0.0115
1116.00	0.0112
1119.00	0.0109
1122.00	0.0113
1125.00	0.0113
1128.00	0.0111
1131.00	0.0110
1134.00	0.0113
1137.00	0.0113
1140.00	0.0112
1143.00	0.0108
1146.00	0.0107
1149.00	0.0108
1152.00	0.0113
1155.00	0.0110
1158.00	0.0110
1161.00	0.0113
1164.00	0.0110
1167.00	0.0107
1170.00	0.0113
1173.00	0.0114
1176.00	0.0110
1179.00	0.0112
1182.00	0.0111
1185.00	0.0110
1188.00	0.0111
1191.00	0.0108
1194.00	0.0107
1197.00	0.0112
1200.00	0.0109
1203.00	0.0114
1206.00	0.0120
1209.00	0.0108
1212.00	0.0108
1215.00	0.0110
1218.00	0.0112
1221.00	0.0114
1224.00	0.0110
1227.00	0.0108
1230.00	0.0111
1233.00	0.0109
1236.00	0.0109
1239.00	0.0108
1242.00	0.0106
1245.00	0.0107
1248.00	0.0108
1251.00	0.0106
1254.00	0.0100
1257.00	0.0099
1260.00	0.0106
1263.00	0.0106
1266.00	0.0107
1269.00	0.0102
1272.00	0.0102
1275.00	0.0104
1278.00	0.0106
1281.00	0.0105
1284.00	0.0104
1287.00	0.0099
1290.00	0.0098
1293.00	0.0099
1296.00	0.0098
1299.00	0.0097
1302.00	0.0098
1305.00	0.0099
1308.00	0.0095
1311.00	0.0092
1314.00	0.0095
1317.00	0.0091
1320.00	0.0086
1323.00	0.0088
1326.00	0.0091
1329.00	0.0088
1332.00	0.0087
1335.00	0.0089
1338.00	0.0088
1341.00	0.0091
1344.00	0.0083
1347.00	0.0081
1350.00	0.0084
1353.00	0.0087
1356.00	0.0087
1359.00	0.0086
1362.00	0.0094
1365.00	0.0094
1368.00	0.0090
1371.00	0.0086
1374.00	0.0092
1377.00	0.0098
1380.00	0.0095
1383.00	0.0081
1386.00	0.0085
1389.00	0.0086
1392.00	0.0086
1395.00	0.0083
1398.00	0.0091
1401.00	0.0093
1404.00	0.0091
1407.00	0.0082
1410.00	0.0087
1413.00	0.0089
1416.00	0.0086
1419.00	0.0087
1422.00	0.0091
1425.00	0.0092
1428.00	0.0093
1431.00	0.0088
1434.00	0.0093
1437.00	0.0090
1440.00	0.0087
1443.00	0.0086
1446.00	0.0086
1449.00	0.0088
1452.00	0.0089
1455.00	0.0082
1458.00	0.0090
1461.00	0.0089
1464.00	0.0087
1467.00	0.0083
1470.00	0.0084
1473.00	0.0090
1476.00	0.0085
1479.00	0.0078
1482.00	0.0079
1485.00	0.0086
1488.00	0.0080
1491.00	0.0079
1494.00	0.0078
1497.00	0.0082
1500.00	0.0081
1503.00	0.0080
1506.00	0.0083
1509.00	0.0088
1512.00	0.0084
1515.00	0.0090
1518.00	0.0088
1521.00	0.0082
1524.00	0.0082
1527.00	0.0083
1530.00	0.0073
1533.00	0.0072
1536.00	0.0077
1539.00	0.0079
1542.00	0.0077
1545.00	0.0080
1548.00	0.0081
1551.00	0.0081
1554.00	0.0081
1557.00	0.0072
1560.00	0.0075
1563.00	0.0082
1566.00	0.0077
1569.00	0.0072
1572.00	0.0079
1575.00	0.0081
1578.00	0.0083
1581.00	0.0079
1584.00	0.0080
1587.00	0.0083
1590.00	0.0082
1593.00	0.0079
1596.00	0.0084
1599.00	0.0084
1602.00	0.0086
1605.00	0.0087
1608.00	0.0081
1611.00	0.0082
1614.00	0.0083
1617.00	0.0090
1620.00	0.0086
1623.00	0.0080
1626.00	0.0090
1629.00	0.0092
1632.00	0.0084
1635.00	0.0084
1638.00	0.0083
1641.00	0.0079
1644.00	0.0076
1647.00	0.0063
1650.00	0.0053
1653.00	0.0043
1656.00	0.0033
1659.00	0.0028
1662.00	0.0031
1665.00	0.0029
1668.00	0.0027
1671.00	0.0027
1674.00	0.0027
1677.00	0.0028
1680.00	0.0022
1683.00	0.0025
1686.00	0.0021
1689.00	0.0024
1692.00	0.0020
1695.00	0.0018
1698.00	0.0024
1701.00	0.0027
1704.00	0.0024
1707.00	0.0022
1710.00	0.0023
1713.00	0.0028
1716.00	0.0032
1719.00	0.0028
1722.00	0.0026
1725.00	0.0022
1728.00	0.0026
1731.00	0.0030
1734.00	0.0025
1737.00	0.0031
1740.00	0.0030
1743.00	0.0030
1746.00	0.0027
1749.00	0.0026
1752.00	0.0027
1755.00	0.0031
1758.00	0.0032
1761.00	0.0027
1764.00	0.0028
1767.00	0.0032
1770.00	0.0029
1773.00	0.0025
1776.00	0.0029
1779.00	0.0027
1782.00	0.0030
1785.00	0.0033
1788.00	0.0034
1791.00	0.0032
1794.00	0.0029
1797.00	0.0028
1800.00	0.0021
1803.00	0.0029
1806.00	0.0033
1809.00	0.0032
1812.00	0.0035
1815.00	0.0027
1818.00	0.0026
1821.00	0.0029
1824.00	0.0033
1827.00	0.0039
1830.00	0.0037
1833.00	0.0037
1836.00	0.0033
1839.00	0.0032
1842.00	0.0027
1845.00	0.0033
1848.00	0.0028
1851.00	0.0023
1854.00	0.0031
1857.00	0.0038
1860.00	0.0036
1863.00	0.0030
1866.00	0.0026
1869.00	0.0032
1872.00	0.0035
1875.00	0.0032
1878.00	0.0029
1881.00	0.0028
1884.00	0.0027
1887.00	0.0025
1890.00	0.0025
1893.00	0.0025
1896.00	0.0025
1899.00	0.0029
1902.00	0.0033
1905.00	0.0033
1908.00	0.0025
1911.00	0.0028
1914.00	0.0027
1917.00	0.0033
1920.00	0.0033
1923.00	0.0032
1926.00	0.0036
1929.00	0.0032
1932.00	0.0029
1935.00	0.0026
1938.00	0.0025
1941.00	0.0033
1944.00	0.0032
1947.00	0.0027
1950.00	0.0030
1953.00	0.0028
1956.00	0.0034
1959.00	0.0031
1962.00	0.0035
1965.00	0.0030
1968.00	0.0029
1971.00	0.0031
1974.00	0.0026
1977.00	0.0026
1980.00	0.0028
1983.00	0.0026
1986.00	0.0031
1989.00	0.0030
1992.00	0.0031
1995.00	0.0030
1998.00	0.0030
2001.00	0.0037
2004.00	0.0035
2007.00	0.0033
2010.00	0.0033
2013.00	0.0027
2016.00	0.0028
2019.00	0.0029
2022.00	0.0028
2025.00	0.0028
2028.00	0.0021
2031.00	0.0023
2034.00	0.0027
2037.00	0.0030
2040.00	0.0033
2043.00	0.0024
2046.00	0.0030
2049.00	0.0027
2052.00	0.0026
2055.00	0.0036
2058.00	0.0034
2061.00	0.0031
2064.00	0.0035
2067.00	0.0031
2070.00	0.0035
2073.00	0.0030
2076.00	0.0023
2079.00	0.0025
2082.00	0.0022
2085.00	0.0031
2088.00	0.0031
2091.00	0.0027
2094.00	0.0023
2097.00	0.0015
2100.00	0.0022
2103.00	0.0023
2106.00	0.0019
2109.00	0.0021
2112.00	0.0028
2115.00	0.0026
2118.00	0.0023
2121.00	0.0020
2124.00	0.0023
2127.00	0.0027
2130.00	0.0034
2133.00	0.0031
2136.00	0.0032
2139.00	0.0031
2142.00	0.0031
2145.00	0.0034
2148.00	0.0027
2151.00	0.0023
2154.00	0.0020
2157.00	0.0019
2160.00	0.0018
2163.00	0.0022
2166.00	0.0029
2169.00	0.0030
2172.00	0.0026
2175.00	0.0029
2178.00	0.0025
2181.00	0.0029
2184.00	0.0029
2187.00	0.0020
2190.00	0.0023
2193.00	0.0023
2196.00	0.0008
2199.00	0.0008
2202.00	0.0011
2205.00	0.0009
2208.00	0.0003
2211.00	0.0003
2214.00	0.0004
2217.00	0.0007
2220.00	0.0001
2223.00	-0.0006
2226.00	0.0002
2229.00	-0.0007
2232.00	-0.0004
2235.00	0.0013
2238.00	0.0008
2241.00	0.0013
2244.00	0.0023
2247.00	0.0021
2250.00	0.0020
2253.00	0.0025
2256.00	0.0024
2259.00	0.0023
2262.00	0.0021
2265.00	0.0025
2268.00	0.0025
2271.00	0.0020
2274.00	0.0008
2277.00	0.0015
2280.00	0.0019
2283.00	0.0013
2286.00	0.0019
2289.00	0.0023
2292.00	0.0022
2295.00	0.0025
2298.00	0.0023
2301.00	0.0024
2304.00	0.0019
2307.00	0.0020
2310.00	0.0021
2313.00	0.0018
2316.00	0.0022
2319.00	0.0022
2322.00	0.0027
2325.00	0.0031
2328.00	0.0022
2331.00	0.0024
2334.00	0.0020
2337.00	0.0015
2340.00	0.0024
2343.00	0.0024
2346.00	0.0022
2349.00	0.0021
2352.00	0.0030
2355.00	0.0032
2358.00	0.0031
2361.00	0.0030
2364.00	0.0026
2367.00	0.0026
2370.00	0.0028
2373.00	0.0022
2376.00	0.0013
2379.00	0.0024
2382.00	0.0024
2385.00	0.0025
2388.00	0.0029
2391.00	0.0029
2394.00	0.0018
2397.00	0.0022
2400.00	0.0035
2403.00	0.0033
2406.00	0.0026
2409.00	0.0026
2412.00	0.0029
2415.00	0.0029
2418.00	0.0024
2421.00	0.0020
2424.00	0.0018
2427.00	0.0018
2430.00	0.0024
2433.00	0.0021
2436.00	0.0018
2439.00	0.0025
2442.00	0.0025
2445.00	0.0024
2448.00	0.0025
2451.00	0.0022
2454.00	0.0020
2457.00	0.0013
2460.00	0.0023
2463.00	0.0014
2466.00	0.0013
2469.00	0.0023
2472.00	0.0026
2475.00	0.0014
2478.00	0.0018
2481.00	0.0012
2484.00	0.0005
2487.00	0.0018
2490.00	0.0020
2493.00	0.0010
2496.00	0.0008
2499.00	0.0009
2502.00	0.0017
2505.00	0.0018
2508.00	0.0015
2511.00	0.0019
2514.00	0.0018
2517.00	0.0020
2520.00	0.0018
2523.00	0.0015
2526.00	0.0013
2529.00	0.0019
2532.00	0.0017
2535.00	0.0015
2538.00	0.0013
2541.00	0.0011
2544.00	0.0014
2547.00	0.0012
2550.00	0.0008
2553.00	0.0002
2556.00	-0.0006
2559.00	-0.0008
2562.00	0.0005
2565.00	0.0005
2568.00	0.0003
2571.00	0.0003
2574.00	0.0005
2577.00	-0.0001
2580.00	-0.0009
2583.00	-0.0020
2586.00	-0.0020
2589.00	-0.0010
2592.00	-0.0007
2595.00	-0.0016
2598.00	-0.0026
2601.00	-0.0027
2604.00	-0.0025
2607.00	-0.0021
2610.00	-0.0009
2613.00	-0.0004
2616.00	-0.0005
2619.00	-0.0003
2622.00	-0.0007
2625.00	-0.0013
2628.00	-0.0015
2631.00	-0.0006
2634.00	-0.0003
2637.00	-0.0000
2640.00	-0.0006
2643.00	-0.0009
2646.00	-0.0013
2649.00	-0.0017
2652.00	-0.0032
2655.00	-0.0046
2658.00	-0.0061
2661.00	-0.0073
2664.00	-0.0080
2667.00	-0.0062
2670.00	-0.0019
2673.00	0.0006
2676.00	0.0007
2679.00	-0.0025
2682.00	-0.0070
2685.00	-0.0120
2688.00	-0.0156
2691.00	-0.0203
2694.00	-0.0270
2697.00	-0.0383
2700.00	-0.0360
2703.00	-0.0401
2706.00	-0.0421
2709.00	-0.0524
2712.00	-0.0604
2715.00	-0.0689
2718.00	-0.0787
2721.00	-0.0858
2724.00	-0.0923
2727.00	-0.0941
2730.00	-0.0933
2733.00	-0.0953
2736.00	-0.0952
2739.00	-0.0933
2742.00	-0.0880
2745.00	-0.0853
2748.00	-0.0816
2751.00	-0.0816
2754.00	-0.0822
2757.00	-0.0805
2760.00	-0.0790
2763.00	-0.0759
2766.00	-0.0715
2769.00	-0.0682
2772.00	-0.0635
2775.00	-0.0602
2778.00	-0.0589
2781.00	-0.0572
2784.00	-0.0551
2787.00	-0.0531
2790.00	-0.0497
2793.00	-0.0471
2796.00	-0.0441
2799.00	-0.0415
2802.00	-0.0392
2805.00	-0.0369
2808.00	-0.0347
2811.00	-0.0330
2814.00	-0.0317
2817.00	-0.0290
2820.00	-0.0267
2823.00	-0.0247
2826.00	-0.0224
2829.00	-0.0207
2832.00	-0.0192
2835.00	-0.0180
2838.00	-0.0163
2841.00	-0.0154
2844.00	-0.0143
2847.00	-0.0132
2850.00	-0.0120
2853.00	-0.0109
2856.00	-0.0099
2859.00	-0.0092
2862.00	-0.0083
2865.00	-0.0078
2868.00	-0.0071
2871.00	-0.0065
2874.00	-0.0061
2877.00	-0.0056
2880.00	-0.0051
2883.00	-0.0046
2886.00	-0.0046
2889.00	-0.0042
2892.00	-0.0042
2895.00	-0.0040
2898.00	-0.0038
2901.00	-0.0035
2904.00	-0.0029
2907.00	-0.0027
2910.00	-0.0025
2913.00	-0.0023
2916.00	-0.0022
2919.00	-0.0017
2922.00	-0.0017
2925.00	-0.0019
2928.00	-0.0018
2931.00	-0.0018
2934.00	-0.0014
2937.00	-0.0010
2940.00	-0.0010
2943.00	-0.0006
2946.00	-0.0005
2949.00	-0.0006
2952.00	-0.0006
2955.00	-0.0001
2958.00	0.0002
2961.00	-0.0002
2964.00	0.0001
2967.00	0.0000
2970.00	0.0004
2973.00	0.0012
2976.00	0.0009
2979.00	0.0007
2982.00	0.0005
2985.00	0.0003
2988.00	0.0003
2991.00	0.0009
2994.00	0.0010
2997.00	0.0034
3000.00	0.0069
3003.00	0.0090
3006.00	0.0109
3009.00	0.0130
3012.00	0.0131
3015.00	0.0131
3018.00	0.0132
3021.00	0.0132
3024.00	0.0131
3027.00	0.0132
3030.00	0.0133
3033.00	0.0134
3036.00	0.0132
3039.00	0.0135
3042.00	0.0134
3045.00	0.0136
3048.00	0.0134
3051.00	0.0139
3054.00	0.0139
3057.00	0.0140
3060.00	0.0144
3063.00	0.0145
3066.00	0.0145
3069.00	0.0146
3072.00	0.0150
3075.00	0.0151
3078.00	0.0152
3081.00	0.0152
3084.00	0.0152
3087.00	0.0153
3090.00	0.0150
3093.00	0.0152
3096.00	0.0152
3099.00	0.0152
3102.00	0.0153
3105.00	0.0152
3108.00	0.0151
3111.00	0.0146
3114.00	0.0143
3117.00	0.0143
3120.00	0.0139
3123.00	0.0133
3126.00	0.0129
3129.00	0.0128
3132.00	0.0127
3135.00	0.0127
3138.00	0.0128
3141.00	0.0133
3144.00	0.0132
3147.00	0.0134
3150.00	0.0133
3153.00	0.0134
3156.00	0.0132
3159.00	0.0135
3162.00	0.0133
3165.00	0.0132
3168.00	0.0135
3171.00	0.0131
3174.00	0.0143
3177.00	0.0142
3180.00	0.0138
3183.00	0.0144
3186.00	0.0143
3189.00	0.0149
3192.00	0.0140
3195.00	0.0136
3198.00	0.0136
3201.00	0.0127
3204.00	0.0135
3207.00	0.0120
3210.00	0.0128
3213.00	0.0134
3216.00	0.0144
3219.00	0.0137
3222.00	0.0134
3225.00	0.0150
3228.00	0.0157
3231.00	0.0155
3234.00	0.0157
3237.00	0.0157
3240.00	0.0151
3243.00	0.0131
3246.00	0.0114
3249.00	0.0109
3252.00	0.0100
3255.00	0.0108
3258.00	0.0098
3261.00	0.0115
3264.00	0.0123
3267.00	0.0130
3270.00	0.0102
3273.00	0.0081
3276.00	0.0079
3279.00	0.0075
3282.00	0.0094
3285.00	0.0123
3288.00	0.0148
3291.00	0.0163
3294.00	0.0227
3297.00	0.0273
3300.00	0.0296