File: CF_UV_VIS_20mM.txt
"20-30mM-CF20mM - RawData"
"Wavelength nm."	"Abs."
300.00	0.1107
303.00	0.1137
306.00	0.1163
309.00	0.1209
312.00	0.1243
315.00	0.1292
318.00	0.1360
321.00	0.1418
324.00	0.1478
327.00	0.1543
330.00	0.1602
333.00	0.1655
336.00	0.1728
339.00	0.1801
342.00	0.1867
345.00	0.1932
348.00	0.1980
351.00	0.2019
354.00	0.2056
357.00	0.2087
360.00	0.2113
363.00	0.2130
366.00	0.2165
369.00	0.2203
372.00	0.2229
375.00	0.2232
378.00	0.2253
381.00	0.2281
384.00	0.2314
387.00	0.2352
390.00	0.2386
393.00	0.2419
396.00	0.2448
399.00	0.2468
402.00	0.2500
405.00	0.2543
408.00	0.2581
411.00	0.2617
414.00	0.2647
417.00	0.2660
420.00	0.2657
423.00	0.2642
426.00	0.2623
429.00	0.2604
432.00	0.2585
435.00	0.2574
438.00	0.2566
441.00	0.2555
444.00	0.2545
447.00	0.2542
450.00	0.2542
453.00	0.2558
456.00	0.2573
459.00	0.2593
462.00	0.2620
465.00	0.2644
468.00	0.2669
471.00	0.2695
474.00	0.2720
477.00	0.2746
480.00	0.2765
483.00	0.2780
486.00	0.2793
489.00	0.2802
492.00	0.2811
495.00	0.2822
498.00	0.2828
501.00	0.2832
504.00	0.2833
507.00	0.2832
510.00	0.2822
513.00	0.2810
516.00	0.2794
519.00	0.2769
522.00	0.2745
525.00	0.2719
528.00	0.2689
531.00	0.2668
534.00	0.2630
537.00	0.2614
540.00	0.2582
543.00	0.2543
546.00	0.2516
549.00	0.2488
552.00	0.2462
555.00	0.2433
558.00	0.2406
561.00	0.2378
564.00	0.2351
567.00	0.2324
570.00	0.2292
573.00	0.2263
576.00	0.2229
579.00	0.2194
582.00	0.2163
585.00	0.2129
588.00	0.2091
591.00	0.2053
594.00	0.2016
597.00	0.1975
600.00	0.1936
603.00	0.1903
606.00	0.1868
609.00	0.1834
612.00	0.1804
615.00	0.1772
618.00	0.1748
621.00	0.1720
624.00	0.1704
627.00	0.1685
630.00	0.1668
633.00	0.1652
636.00	0.1638
639.00	0.1630
642.00	0.1618
645.00	0.1611
648.00	0.1610
651.00	0.1613
654.00	0.1604
657.00	0.1606
660.00	0.1609
663.00	0.1609
666.00	0.1613
669.00	0.1613
672.00	0.1624
675.00	0.1631
678.00	0.1634
681.00	0.1639
684.00	0.1649
687.00	0.1651
690.00	0.1651
693.00	0.1659
696.00	0.1661
699.00	0.1656
702.00	0.1656
705.00	0.1663
708.00	0.1670
711.00	0.1677
714.00	0.1680
717.00	0.1690
720.00	0.1688
723.00	0.1685
726.00	0.1678
729.00	0.1687
732.00	0.1696
735.00	0.1706
738.00	0.1712
741.00	0.1726
744.00	0.1733
747.00	0.1737
750.00	0.1754
753.00	0.1763
756.00	0.1771
759.00	0.1782
762.00	0.1788
765.00	0.1795
768.00	0.1799
771.00	0.1793
774.00	0.1798
777.00	0.1791
780.00	0.1770
783.00	0.1751
786.00	0.1744
789.00	0.1733
792.00	0.1715
795.00	0.1693
798.00	0.1658
801.00	0.1629
804.00	0.1610
807.00	0.1589
810.00	0.1571
813.00	0.1555
816.00	0.1546
819.00	0.1543
822.00	0.1540
825.00	0.1535
828.00	0.1535
831.00	0.1544
834.00	0.1548
837.00	0.1553
840.00	0.1561
843.00	0.1571
846.00	0.1583
849.00	0.1599
852.00	0.1607
855.00	0.1611
858.00	0.1613
861.00	0.1612
864.00	0.1614
867.00	0.1611
870.00	0.1610
873.00	0.1609
876.00	0.1604
879.00	0.1587
882.00	0.1570
885.00	0.1549
888.00	0.1522
891.00	0.1494
894.00	0.1468
897.00	0.1439
900.00	0.1414
903.00	0.1389
906.00	0.1364
909.00	0.1336
912.00	0.1310
915.00	0.1289
918.00	0.1266
921.00	0.1242
924.00	0.1218
927.00	0.1198
930.00	0.1178
933.00	0.1154
936.00	0.1135
939.00	0.1114
942.00	0.1096
945.00	0.1078
948.00	0.1060
951.00	0.1040
954.00	0.1020
957.00	0.1000
960.00	0.0983
963.00	0.0968
966.00	0.0951
969.00	0.0931
972.00	0.0914
975.00	0.0898
978.00	0.0883
981.00	0.0866
984.00	0.0851
987.00	0.0835
990.00	0.0821
993.00	0.0802
996.00	0.0788
999.00	0.0775
1002.00	0.0756
1005.00	0.0739
1008.00	0.0722
1011.00	0.0706
1014.00	0.0696
1017.00	0.0684
1020.00	0.0676
1023.00	0.0661
1026.00	0.0646
1029.00	0.0634
1032.00	0.0626
1035.00	0.0613
1038.00	0.0599
1041.00	0.0591
1044.00	0.0582
1047.00	0.0574
1050.00	0.0557
1053.00	0.0551
1056.00	0.0542
1059.00	0.0540
1062.00	0.0528
1065.00	0.0518
1068.00	0.0512
1071.00	0.0502
1074.00	0.0492
1077.00	0.0488
1080.00	0.0482
1083.00	0.0473
1086.00	0.0468
1089.00	0.0463
1092.00	0.0459
1095.00	0.0450
1098.00	0.0448
1101.00	0.0443
1104.00	0.0437
1107.00	0.0434
1110.00	0.0432
1113.00	0.0428
1116.00	0.0424
1119.00	0.0421
1122.00	0.0417
1125.00	0.0414
1128.00	0.0411
1131.00	0.0411
1134.00	0.0409
1137.00	0.0406
1140.00	0.0402
1143.00	0.0397
1146.00	0.0397
1149.00	0.0396
1152.00	0.0397
1155.00	0.0396
1158.00	0.0396
1161.00	0.0395
1164.00	0.0397
1167.00	0.0393
1170.00	0.0395
1173.00	0.0394
1176.00	0.0392
1179.00	0.0393
1182.00	0.0392
1185.00	0.0389
1188.00	0.0393
1191.00	0.0395
1194.00	0.0396
1197.00	0.0399
1200.00	0.0392
1203.00	0.0399
1206.00	0.0403
1209.00	0.0399
1212.00	0.0401
1215.00	0.0402
1218.00	0.0402
1221.00	0.0409
1224.00	0.0407
1227.00	0.0404
1230.00	0.0407
1233.00	0.0406
1236.00	0.0411
1239.00	0.0413
1242.00	0.0413
1245.00	0.0415
1248.00	0.0418
1251.00	0.0420
1254.00	0.0418
1257.00	0.0419
1260.00	0.0424
1263.00	0.0428
1266.00	0.0427
1269.00	0.0421
1272.00	0.0425
1275.00	0.0438
1278.00	0.0438
1281.00	0.0440
1284.00	0.0445
1287.00	0.0445
1290.00	0.0447
1293.00	0.0452
1296.00	0.0454
1299.00	0.0459
1302.00	0.0459
1305.00	0.0463
1308.00	0.0464
1311.00	0.0467
1314.00	0.0470
1317.00	0.0474
1320.00	0.0480
1323.00	0.0479
1326.00	0.0481
1329.00	0.0482
1332.00	0.0489
1335.00	0.0492
1338.00	0.0496
1341.00	0.0499
1344.00	0.0503
1347.00	0.0507
1350.00	0.0514
1353.00	0.0518
1356.00	0.0526
1359.00	0.0529
1362.00	0.0535
1365.00	0.0540
1368.00	0.0544
1371.00	0.0550
1374.00	0.0555
1377.00	0.0559
1380.00	0.0567
1383.00	0.0570
1386.00	0.0575
1389.00	0.0582
1392.00	0.0578
1395.00	0.0585
1398.00	0.0595
1401.00	0.0602
1404.00	0.0608
1407.00	0.0614
1410.00	0.0620
1413.00	0.0621
1416.00	0.0618
1419.00	0.0630
1422.00	0.0641
1425.00	0.0646
1428.00	0.0651
1431.00	0.0661
1434.00	0.0669
1437.00	0.0666
1440.00	0.0671
1443.00	0.0682
1446.00	0.0686
1449.00	0.0693
1452.00	0.0694
1455.00	0.0699
1458.00	0.0710
1461.00	0.0717
1464.00	0.0724
1467.00	0.0731
1470.00	0.0737
1473.00	0.0745
1476.00	0.0743
1479.00	0.0751
1482.00	0.0758
1485.00	0.0766
1488.00	0.0771
1491.00	0.0779
1494.00	0.0788
1497.00	0.0795
1500.00	0.0797
1503.00	0.0806
1506.00	0.0817
1509.00	0.0824
1512.00	0.0829
1515.00	0.0834
1518.00	0.0843
1521.00	0.0850
1524.00	0.0853
1527.00	0.0857
1530.00	0.0868
1533.00	0.0876
1536.00	0.0880
1539.00	0.0886
1542.00	0.0895
1545.00	0.0903
1548.00	0.0910
1551.00	0.0917
1554.00	0.0927
1557.00	0.0931
1560.00	0.0938
1563.00	0.0947
1566.00	0.0954
1569.00	0.0962
1572.00	0.0968
1575.00	0.0972
1578.00	0.0979
1581.00	0.0988
1584.00	0.0996
1587.00	0.0999
1590.00	0.1007
1593.00	0.1012
1596.00	0.1024
1599.00	0.1031
1602.00	0.1036
1605.00	0.1042
1608.00	0.1051
1611.00	0.1059
1614.00	0.1063
1617.00	0.1074
1620.00	0.1081
1623.00	0.1082
1626.00	0.1098
1629.00	0.1106
1632.00	0.1106
1635.00	0.1110
1638.00	0.1117
1641.00	0.1120
1644.00	0.1123
1647.00	0.1125
1650.00	0.1128
1653.00	0.1129
1656.00	0.1127
1659.00	0.1129
1662.00	0.1136
1665.00	0.1140
1668.00	0.1146
1671.00	0.1153
1674.00	0.1159
1677.00	0.1164
1680.00	0.1170
1683.00	0.1179
1686.00	0.1187
1689.00	0.1190
1692.00	0.1193
1695.00	0.1199
1698.00	0.1207
1701.00	0.1212
1704.00	0.1213
1707.00	0.1217
1710.00	0.1224
1713.00	0.1234
1716.00	0.1242
1719.00	0.1243
1722.00	0.1246
1725.00	0.1251
1728.00	0.1257
1731.00	0.1263
1734.00	0.1269
1737.00	0.1277
1740.00	0.1280
1743.00	0.1282
1746.00	0.1288
1749.00	0.1292
1752.00	0.1298
1755.00	0.1303
1758.00	0.1307
1761.00	0.1311
1764.00	0.1317
1767.00	0.1325
1770.00	0.1328
1773.00	0.1332
1776.00	0.1337
1779.00	0.1337
1782.00	0.1342
1785.00	0.1350
1788.00	0.1352
1791.00	0.1353
1794.00	0.1358
1797.00	0.1366
1800.00	0.1366
1803.00	0.1371
1806.00	0.1377
1809.00	0.1382
1812.00	0.1384
1815.00	0.1386
1818.00	0.1389
1821.00	0.1396
1824.00	0.1400
1827.00	0.1408
1830.00	0.1408
1833.00	0.1413
1836.00	0.1419
1839.00	0.1415
1842.00	0.1416
1845.00	0.1417
1848.00	0.1414
1851.00	0.1414
1854.00	0.1422
1857.00	0.1435
1860.00	0.1443
1863.00	0.1445
1866.00	0.1452
1869.00	0.1452
1872.00	0.1447
1875.00	0.1444
1878.00	0.1448
1881.00	0.1452
1884.00	0.1455
1887.00	0.1454
1890.00	0.1456
1893.00	0.1464
1896.00	0.1470
1899.00	0.1479
1902.00	0.1488
1905.00	0.1486
1908.00	0.1482
1911.00	0.1484
1914.00	0.1484
1917.00	0.1481
1920.00	0.1485
1923.00	0.1493
1926.00	0.1499
1929.00	0.1499
1932.00	0.1500
1935.00	0.1503
1938.00	0.1504
1941.00	0.1506
1944.00	0.1506
1947.00	0.1506
1950.00	0.1505
1953.00	0.1503
1956.00	0.1507
1959.00	0.1514
1962.00	0.1513
1965.00	0.1514
1968.00	0.1518
1971.00	0.1522
1974.00	0.1519
1977.00	0.1521
1980.00	0.1525
1983.00	0.1529
1986.00	0.1532
1989.00	0.1536
1992.00	0.1533
1995.00	0.1528
1998.00	0.1532
2001.00	0.1540
2004.00	0.1540
2007.00	0.1537
2010.00	0.1540
2013.00	0.1540
2016.00	0.1538
2019.00	0.1541
2022.00	0.1544
2025.00	0.1545
2028.00	0.1540
2031.00	0.1542
2034.00	0.1550
2037.00	0.1548
2040.00	0.1545
2043.00	0.1548
2046.00	0.1553
2049.00	0.1550
2052.00	0.1553
2055.00	0.1561
2058.00	0.1559
2061.00	0.1553
2064.00	0.1556
2067.00	0.1556
2070.00	0.1555
2073.00	0.1559
2076.00	0.1560
2079.00	0.1558
2082.00	0.1562
2085.00	0.1562
2088.00	0.1560
2091.00	0.1560
2094.00	0.1556
2097.00	0.1554
2100.00	0.1563
2103.00	0.1565
2106.00	0.1560
2109.00	0.1561
2112.00	0.1563
2115.00	0.1562
2118.00	0.1558
2121.00	0.1558
2124.00	0.1558
2127.00	0.1562
2130.00	0.1563
2133.00	0.1560
2136.00	0.1564
2139.00	0.1562
2142.00	0.1565
2145.00	0.1568
2148.00	0.1565
2151.00	0.1554
2154.00	0.1556
2157.00	0.1556
2160.00	0.1555
2163.00	0.1558
2166.00	0.1565
2169.00	0.1562
2172.00	0.1559
2175.00	0.1560
2178.00	0.1563
2181.00	0.1560
2184.00	0.1556
2187.00	0.1553
2190.00	0.1551
2193.00	0.1551
2196.00	0.1545
2199.00	0.1541
2202.00	0.1539
2205.00	0.1542
2208.00	0.1542
2211.00	0.1535
2214.00	0.1532
2217.00	0.1536
2220.00	0.1538
2223.00	0.1531
2226.00	0.1533
2229.00	0.1538
2232.00	0.1533
2235.00	0.1530
2238.00	0.1528
2241.00	0.1532
2244.00	0.1533
2247.00	0.1529
2250.00	0.1526
2253.00	0.1527
2256.00	0.1531
2259.00	0.1533
2262.00	0.1535
2265.00	0.1536
2268.00	0.1533
2271.00	0.1532
2274.00	0.1530
2277.00	0.1532
2280.00	0.1531
2283.00	0.1530
2286.00	0.1531
2289.00	0.1534
2292.00	0.1536
2295.00	0.1537
2298.00	0.1535
2301.00	0.1530
2304.00	0.1525
2307.00	0.1524
2310.00	0.1526
2313.00	0.1524
2316.00	0.1523
2319.00	0.1527
2322.00	0.1524
2325.00	0.1525
2328.00	0.1523
2331.00	0.1526
2334.00	0.1528
2337.00	0.1519
2340.00	0.1514
2343.00	0.1512
2346.00	0.1515
2349.00	0.1513
2352.00	0.1518
2355.00	0.1513
2358.00	0.1510
2361.00	0.1511
2364.00	0.1509
2367.00	0.1510
2370.00	0.1511
2373.00	0.1511
2376.00	0.1509
2379.00	0.1507
2382.00	0.1496
2385.00	0.1499
2388.00	0.1500
2391.00	0.1497
2394.00	0.1497
2397.00	0.1500
2400.00	0.1499
2403.00	0.1491
2406.00	0.1495
2409.00	0.1493
2412.00	0.1488
2415.00	0.1484
2418.00	0.1484
2421.00	0.1480
2424.00	0.1482
2427.00	0.1477
2430.00	0.1480
2433.00	0.1472
2436.00	0.1474
2439.00	0.1480
2442.00	0.1481
2445.00	0.1477
2448.00	0.1471
2451.00	0.1476
2454.00	0.1475
2457.00	0.1462
2460.00	0.1461
2463.00	0.1463
2466.00	0.1460
2469.00	0.1469
2472.00	0.1467
2475.00	0.1461
2478.00	0.1462
2481.00	0.1454
2484.00	0.1444
2487.00	0.1441
2490.00	0.1450
2493.00	0.1438
2496.00	0.1443
2499.00	0.1436
2502.00	0.1438
2505.00	0.1441
2508.00	0.1441
2511.00	0.1442
2514.00	0.1435
2517.00	0.1435
2520.00	0.1436
2523.00	0.1433
2526.00	0.1426
2529.00	0.1424
2532.00	0.1419
2535.00	0.1420
2538.00	0.1418
2541.00	0.1415
2544.00	0.1408
2547.00	0.1407
2550.00	0.1406
2553.00	0.1396
2556.00	0.1390
2559.00	0.1399
2562.00	0.1412
2565.00	0.1409
2568.00	0.1405
2571.00	0.1400
2574.00	0.1404
2577.00	0.1414
2580.00	0.1413
2583.00	0.1402
2586.00	0.1388
2589.00	0.1385
2592.00	0.1399
2595.00	0.1398
2598.00	0.1384
2601.00	0.1382
2604.00	0.1374
2607.00	0.1358
2610.00	0.1354
2613.00	0.1367
2616.00	0.1381
2619.00	0.1372
2622.00	0.1365
2625.00	0.1367
2628.00	0.1367
2631.00	0.1370
2634.00	0.1368
2637.00	0.1362
2640.00	0.1356
2643.00	0.1353
2646.00	0.1350
2649.00	0.1347
2652.00	0.1339
2655.00	0.1340
2658.00	0.1329
2661.00	0.1319
2664.00	0.1322
2667.00	0.1336
2670.00	0.1341
2673.00	0.1329
2676.00	0.1332
2679.00	0.1325
2682.00	0.1316
2685.00	0.1294
2688.00	0.1296
2691.00	0.1317
2694.00	0.1358
2697.00	0.1373
2700.00	0.1475
2703.00	0.1568
2706.00	0.1674
2709.00	0.1741
2712.00	0.1812
2715.00	0.1902
2718.00	0.1966
2721.00	0.1995
2724.00	0.1979
2727.00	0.1922
2730.00	0.1869
2733.00	0.1800
2736.00	0.1752
2739.00	0.1676
2742.00	0.1603
2745.00	0.1522
2748.00	0.1447
2751.00	0.1383
2754.00	0.1326
2757.00	0.1262
2760.00	0.1211
2763.00	0.1182
2766.00	0.1147
2769.00	0.1143
2772.00	0.1133
2775.00	0.1119
2778.00	0.1097
2781.00	0.1074
2784.00	0.1063
2787.00	0.1073
2790.00	0.1072
2793.00	0.1077
2796.00	0.1078
2799.00	0.1071
2802.00	0.1068
2805.00	0.1069
2808.00	0.1073
2811.00	0.1081
2814.00	0.1089
2817.00	0.1093
2820.00	0.1105
2823.00	0.1115
2826.00	0.1121
2829.00	0.1126
2832.00	0.1127
2835.00	0.1138
2838.00	0.1143
2841.00	0.1154
2844.00	0.1162
2847.00	0.1167
2850.00	0.1171
2853.00	0.1176
2856.00	0.1182
2859.00	0.1186
2862.00	0.1186
2865.00	0.1183
2868.00	0.1183
2871.00	0.1185
2874.00	0.1193
2877.00	0.1195
2880.00	0.1197
2883.00	0.1199
2886.00	0.1200
2889.00	0.1200
2892.00	0.1199
2895.00	0.1196
2898.00	0.1194
2901.00	0.1195
2904.00	0.1195
2907.00	0.1197
2910.00	0.1197
2913.00	0.1200
2916.00	0.1200
2919.00	0.1202
2922.00	0.1199
2925.00	0.1195
2928.00	0.1195
2931.00	0.1191
2934.00	0.1190
2937.00	0.1190
2940.00	0.1191
2943.00	0.1197
2946.00	0.1198
2949.00	0.1193
2952.00	0.1188
2955.00	0.1186
2958.00	0.1186
2961.00	0.1184
2964.00	0.1186
2967.00	0.1185
2970.00	0.1185
2973.00	0.1186
2976.00	0.1183
2979.00	0.1176
2982.00	0.1175
2985.00	0.1173
2988.00	0.1178
2991.00	0.1182
2994.00	0.1184
2997.00	0.1195
3000.00	0.1209
3003.00	0.1218
3006.00	0.1229
3009.00	0.1236
3012.00	0.1235
3015.00	0.1233
3018.00	0.1233
3021.00	0.1230
3024.00	0.1230
3027.00	0.1229
3030.00	0.1230
3033.00	0.1227
3036.00	0.1223
3039.00	0.1222
3042.00	0.1218
3045.00	0.1216
3048.00	0.1213
3051.00	0.1215
3054.00	0.1218
3057.00	0.1218
3060.00	0.1219
3063.00	0.1219
3066.00	0.1215
3069.00	0.1212
3072.00	0.1208
3075.00	0.1207
3078.00	0.1206
3081.00	0.1209
3084.00	0.1206
3087.00	0.1207
3090.00	0.1203
3093.00	0.1205
3096.00	0.1202
3099.00	0.1196
3102.00	0.1196
3105.00	0.1195
3108.00	0.1191
3111.00	0.1187
3114.00	0.1186
3117.00	0.1183
3120.00	0.1177
3123.00	0.1173
3126.00	0.1172
3129.00	0.1169
3132.00	0.1165
3135.00	0.1169
3138.00	0.1166
3141.00	0.1163
3144.00	0.1160
3147.00	0.1157
3150.00	0.1157
3153.00	0.1155
3156.00	0.1152
3159.00	0.1154
3162.00	0.1151
3165.00	0.1154
3168.00	0.1154
3171.00	0.1153
3174.00	0.1162
3177.00	0.1162
3180.00	0.1158
3183.00	0.1163
3186.00	0.1159
3189.00	0.1158
3192.00	0.1155
3195.00	0.1148
3198.00	0.1158
3201.00	0.1146
3204.00	0.1141
3207.00	0.1132
3210.00	0.1133
3213.00	0.1135
3216.00	0.1114
3219.00	0.1118
3222.00	0.1110
3225.00	0.1122
3228.00	0.1103
3231.00	0.1109
3234.00	0.1108
3237.00	0.1114
3240.00	0.1113
3243.00	0.1119
3246.00	0.1112
3249.00	0.1113
3252.00	0.1109
3255.00	0.1083
3258.00	0.1110
3261.00	0.1107
3264.00	0.1087
3267.00	0.1070
3270.00	0.1052
3273.00	0.1017
3276.00	0.0976
3279.00	0.1006
3282.00	0.1023
3285.00	0.1034
3288.00	0.1060
3291.00	0.1083
3294.00	0.1163
3297.00	0.1193
3300.00	0.1236