File: CF_UV_VIS_30mM.txt
"20-30mM-1_CF30mM - RawData"
"Wavelength nm."	"Abs."
300.00	0.1286
303.00	0.1318
306.00	0.1344
309.00	0.1385
312.00	0.1408
315.00	0.1444
318.00	0.1486
321.00	0.1524
324.00	0.1556
327.00	0.1588
330.00	0.1613
333.00	0.1627
336.00	0.1667
339.00	0.1712
342.00	0.1747
345.00	0.1781
348.00	0.1811
351.00	0.1840
354.00	0.1873
357.00	0.1896
360.00	0.1918
363.00	0.1936
366.00	0.1983
369.00	0.2030
372.00	0.2077
375.00	0.2107
378.00	0.2141
381.00	0.2191
384.00	0.2246
387.00	0.2309
390.00	0.2366
393.00	0.2419
396.00	0.2473
399.00	0.2520
402.00	0.2572
405.00	0.2631
408.00	0.2684
411.00	0.2737
414.00	0.2778
417.00	0.2799
420.00	0.2808
423.00	0.2799
426.00	0.2780
429.00	0.2762
432.00	0.2751
435.00	0.2749
438.00	0.2745
441.00	0.2737
444.00	0.2740
447.00	0.2745
450.00	0.2750
453.00	0.2765
456.00	0.2785
459.00	0.2808
462.00	0.2835
465.00	0.2861
468.00	0.2888
471.00	0.2912
474.00	0.2933
477.00	0.2956
480.00	0.2974
483.00	0.2990
486.00	0.3004
489.00	0.3014
492.00	0.3026
495.00	0.3032
498.00	0.3036
501.00	0.3041
504.00	0.3044
507.00	0.3039
510.00	0.3027
513.00	0.3018
516.00	0.2999
519.00	0.2977
522.00	0.2958
525.00	0.2931
528.00	0.2905
531.00	0.2883
534.00	0.2846
537.00	0.2814
540.00	0.2788
543.00	0.2760
546.00	0.2732
549.00	0.2704
552.00	0.2676
555.00	0.2645
558.00	0.2615
561.00	0.2582
564.00	0.2554
567.00	0.2523
570.00	0.2489
573.00	0.2462
576.00	0.2422
579.00	0.2386
582.00	0.2353
585.00	0.2314
588.00	0.2275
591.00	0.2235
594.00	0.2193
597.00	0.2152
600.00	0.2113
603.00	0.2079
606.00	0.2036
609.00	0.2000
612.00	0.1985
615.00	0.1945
618.00	0.1917
621.00	0.1883
624.00	0.1870
627.00	0.1844
630.00	0.1832
633.00	0.1820
636.00	0.1795
639.00	0.1789
642.00	0.1776
645.00	0.1772
648.00	0.1770
651.00	0.1767
654.00	0.1763
657.00	0.1762
660.00	0.1773
663.00	0.1776
666.00	0.1776
669.00	0.1779
672.00	0.1790
675.00	0.1789
678.00	0.1790
681.00	0.1800
684.00	0.1809
687.00	0.1809
690.00	0.1807
693.00	0.1813
696.00	0.1816
699.00	0.1810
702.00	0.1815
705.00	0.1822
708.00	0.1828
711.00	0.1829
714.00	0.1833
717.00	0.1831
720.00	0.1829
723.00	0.1845
726.00	0.1829
729.00	0.1831
732.00	0.1846
735.00	0.1857
738.00	0.1857
741.00	0.1876
744.00	0.1884
747.00	0.1897
750.00	0.1917
753.00	0.1925
756.00	0.1938
759.00	0.1946
762.00	0.1958
765.00	0.1970
768.00	0.1973
771.00	0.1967
774.00	0.1959
777.00	0.1947
780.00	0.1927
783.00	0.1912
786.00	0.1902
789.00	0.1889
792.00	0.1866
795.00	0.1834
798.00	0.1791
801.00	0.1747
804.00	0.1716
807.00	0.1683
810.00	0.1660
813.00	0.1637
816.00	0.1628
819.00	0.1617
822.00	0.1617
825.00	0.1615
828.00	0.1616
831.00	0.1626
834.00	0.1630
837.00	0.1637
840.00	0.1649
843.00	0.1665
846.00	0.1685
849.00	0.1702
852.00	0.1717
855.00	0.1726
858.00	0.1729
861.00	0.1732
864.00	0.1736
867.00	0.1735
870.00	0.1732
873.00	0.1725
876.00	0.1726
879.00	0.1710
882.00	0.1685
885.00	0.1659
888.00	0.1632
891.00	0.1598
894.00	0.1563
897.00	0.1533
900.00	0.1502
903.00	0.1470
906.00	0.1441
909.00	0.1414
912.00	0.1387
915.00	0.1361
918.00	0.1335
921.00	0.1313
924.00	0.1285
927.00	0.1257
930.00	0.1234
933.00	0.1209
936.00	0.1188
939.00	0.1172
942.00	0.1154
945.00	0.1129
948.00	0.1108
951.00	0.1092
954.00	0.1070
957.00	0.1048
960.00	0.1030
963.00	0.1012
966.00	0.0994
969.00	0.0971
972.00	0.0955
975.00	0.0939
978.00	0.0919
981.00	0.0903
984.00	0.0886
987.00	0.0872
990.00	0.0857
993.00	0.0839
996.00	0.0827
999.00	0.0810
1002.00	0.0790
1005.00	0.0776
1008.00	0.0764
1011.00	0.0747
1014.00	0.0731
1017.00	0.0717
1020.00	0.0708
1023.00	0.0697
1026.00	0.0681
1029.00	0.0666
1032.00	0.0656
1035.00	0.0643
1038.00	0.0630
1041.00	0.0620
1044.00	0.0611
1047.00	0.0599
1050.00	0.0587
1053.00	0.0577
1056.00	0.0569
1059.00	0.0564
1062.00	0.0555
1065.00	0.0546
1068.00	0.0539
1071.00	0.0528
1074.00	0.0518
1077.00	0.0507
1080.00	0.0504
1083.00	0.0499
1086.00	0.0494
1089.00	0.0487
1092.00	0.0483
1095.00	0.0476
1098.00	0.0472
1101.00	0.0471
1104.00	0.0469
1107.00	0.0461
1110.00	0.0449
1113.00	0.0450
1116.00	0.0449
1119.00	0.0444
1122.00	0.0440
1125.00	0.0437
1128.00	0.0436
1131.00	0.0429
1134.00	0.0429
1137.00	0.0429
1140.00	0.0427
1143.00	0.0421
1146.00	0.0422
1149.00	0.0421
1152.00	0.0428
1155.00	0.0424
1158.00	0.0420
1161.00	0.0420
1164.00	0.0415
1167.00	0.0413
1170.00	0.0418
1173.00	0.0420
1176.00	0.0417
1179.00	0.0418
1182.00	0.0419
1185.00	0.0418
1188.00	0.0415
1191.00	0.0413
1194.00	0.0417
1197.00	0.0422
1200.00	0.0416
1203.00	0.0421
1206.00	0.0426
1209.00	0.0423
1212.00	0.0423
1215.00	0.0415
1218.00	0.0418
1221.00	0.0424
1224.00	0.0426
1227.00	0.0427
1230.00	0.0425
1233.00	0.0427
1236.00	0.0430
1239.00	0.0433
1242.00	0.0426
1245.00	0.0430
1248.00	0.0439
1251.00	0.0438
1254.00	0.0438
1257.00	0.0438
1260.00	0.0436
1263.00	0.0440
1266.00	0.0450
1269.00	0.0451
1272.00	0.0455
1275.00	0.0454
1278.00	0.0456
1281.00	0.0461
1284.00	0.0464
1287.00	0.0464
1290.00	0.0465
1293.00	0.0471
1296.00	0.0472
1299.00	0.0476
1302.00	0.0486
1305.00	0.0487
1308.00	0.0484
1311.00	0.0488
1314.00	0.0489
1317.00	0.0495
1320.00	0.0494
1323.00	0.0497
1326.00	0.0500
1329.00	0.0504
1332.00	0.0507
1335.00	0.0510
1338.00	0.0515
1341.00	0.0521
1344.00	0.0520
1347.00	0.0522
1350.00	0.0527
1353.00	0.0530
1356.00	0.0536
1359.00	0.0544
1362.00	0.0551
1365.00	0.0553
1368.00	0.0556
1371.00	0.0564
1374.00	0.0570
1377.00	0.0573
1380.00	0.0580
1383.00	0.0585
1386.00	0.0589
1389.00	0.0595
1392.00	0.0588
1395.00	0.0589
1398.00	0.0611
1401.00	0.0616
1404.00	0.0622
1407.00	0.0630
1410.00	0.0638
1413.00	0.0639
1416.00	0.0645
1419.00	0.0650
1422.00	0.0656
1425.00	0.0662
1428.00	0.0668
1431.00	0.0672
1434.00	0.0681
1437.00	0.0686
1440.00	0.0693
1443.00	0.0687
1446.00	0.0689
1449.00	0.0704
1452.00	0.0711
1455.00	0.0716
1458.00	0.0724
1461.00	0.0730
1464.00	0.0735
1467.00	0.0737
1470.00	0.0747
1473.00	0.0757
1476.00	0.0758
1479.00	0.0765
1482.00	0.0773
1485.00	0.0782
1488.00	0.0788
1491.00	0.0793
1494.00	0.0800
1497.00	0.0810
1500.00	0.0811
1503.00	0.0820
1506.00	0.0831
1509.00	0.0838
1512.00	0.0844
1515.00	0.0850
1518.00	0.0856
1521.00	0.0858
1524.00	0.0867
1527.00	0.0877
1530.00	0.0880
1533.00	0.0885
1536.00	0.0893
1539.00	0.0899
1542.00	0.0906
1545.00	0.0918
1548.00	0.0925
1551.00	0.0931
1554.00	0.0937
1557.00	0.0942
1560.00	0.0952
1563.00	0.0960
1566.00	0.0966
1569.00	0.0974
1572.00	0.0983
1575.00	0.0982
1578.00	0.0987
1581.00	0.1000
1584.00	0.1010
1587.00	0.1018
1590.00	0.1024
1593.00	0.1029
1596.00	0.1037
1599.00	0.1043
1602.00	0.1055
1605.00	0.1061
1608.00	0.1068
1611.00	0.1076
1614.00	0.1079
1617.00	0.1091
1620.00	0.1097
1623.00	0.1097
1626.00	0.1112
1629.00	0.1121
1632.00	0.1121
1635.00	0.1125
1638.00	0.1132
1641.00	0.1132
1644.00	0.1134
1647.00	0.1133
1650.00	0.1129
1653.00	0.1122
1656.00	0.1122
1659.00	0.1123
1662.00	0.1129
1665.00	0.1130
1668.00	0.1135
1671.00	0.1142
1674.00	0.1148
1677.00	0.1157
1680.00	0.1157
1683.00	0.1161
1686.00	0.1168
1689.00	0.1171
1692.00	0.1174
1695.00	0.1179
1698.00	0.1191
1701.00	0.1200
1704.00	0.1200
1707.00	0.1205
1710.00	0.1214
1713.00	0.1223
1716.00	0.1232
1719.00	0.1231
1722.00	0.1233
1725.00	0.1236
1728.00	0.1243
1731.00	0.1252
1734.00	0.1257
1737.00	0.1265
1740.00	0.1267
1743.00	0.1271
1746.00	0.1276
1749.00	0.1280
1752.00	0.1287
1755.00	0.1296
1758.00	0.1297
1761.00	0.1296
1764.00	0.1303
1767.00	0.1315
1770.00	0.1321
1773.00	0.1319
1776.00	0.1321
1779.00	0.1322
1782.00	0.1334
1785.00	0.1344
1788.00	0.1345
1791.00	0.1346
1794.00	0.1348
1797.00	0.1357
1800.00	0.1359
1803.00	0.1367
1806.00	0.1371
1809.00	0.1374
1812.00	0.1378
1815.00	0.1376
1818.00	0.1376
1821.00	0.1387
1824.00	0.1396
1827.00	0.1400
1830.00	0.1401
1833.00	0.1408
1836.00	0.1413
1839.00	0.1412
1842.00	0.1412
1845.00	0.1413
1848.00	0.1411
1851.00	0.1411
1854.00	0.1426
1857.00	0.1437
1860.00	0.1441
1863.00	0.1441
1866.00	0.1439
1869.00	0.1443
1872.00	0.1440
1875.00	0.1444
1878.00	0.1449
1881.00	0.1445
1884.00	0.1446
1887.00	0.1448
1890.00	0.1455
1893.00	0.1461
1896.00	0.1462
1899.00	0.1471
1902.00	0.1483
1905.00	0.1486
1908.00	0.1485
1911.00	0.1484
1914.00	0.1478
1917.00	0.1480
1920.00	0.1483
1923.00	0.1488
1926.00	0.1494
1929.00	0.1498
1932.00	0.1496
1935.00	0.1491
1938.00	0.1495
1941.00	0.1504
1944.00	0.1503
1947.00	0.1501
1950.00	0.1500
1953.00	0.1503
1956.00	0.1509
1959.00	0.1510
1962.00	0.1511
1965.00	0.1511
1968.00	0.1515
1971.00	0.1519
1974.00	0.1515
1977.00	0.1520
1980.00	0.1526
1983.00	0.1523
1986.00	0.1527
1989.00	0.1528
1992.00	0.1528
1995.00	0.1527
1998.00	0.1532
2001.00	0.1540
2004.00	0.1536
2007.00	0.1536
2010.00	0.1534
2013.00	0.1532
2016.00	0.1536
2019.00	0.1537
2022.00	0.1534
2025.00	0.1531
2028.00	0.1534
2031.00	0.1542
2034.00	0.1547
2037.00	0.1548
2040.00	0.1549
2043.00	0.1545
2046.00	0.1548
2049.00	0.1546
2052.00	0.1552
2055.00	0.1558
2058.00	0.1558
2061.00	0.1555
2064.00	0.1562
2067.00	0.1561
2070.00	0.1556
2073.00	0.1558
2076.00	0.1555
2079.00	0.1556
2082.00	0.1563
2085.00	0.1569
2088.00	0.1565
2091.00	0.1563
2094.00	0.1565
2097.00	0.1556
2100.00	0.1562
2103.00	0.1566
2106.00	0.1560
2109.00	0.1557
2112.00	0.1567
2115.00	0.1564
2118.00	0.1566
2121.00	0.1563
2124.00	0.1564
2127.00	0.1565
2130.00	0.1568
2133.00	0.1564
2136.00	0.1570
2139.00	0.1566
2142.00	0.1569
2145.00	0.1567
2148.00	0.1563
2151.00	0.1563
2154.00	0.1560
2157.00	0.1561
2160.00	0.1561
2163.00	0.1560
2166.00	0.1560
2169.00	0.1564
2172.00	0.1565
2175.00	0.1562
2178.00	0.1561
2181.00	0.1563
2184.00	0.1566
2187.00	0.1560
2190.00	0.1556
2193.00	0.1552
2196.00	0.1545
2199.00	0.1548
2202.00	0.1549
2205.00	0.1544
2208.00	0.1541
2211.00	0.1545
2214.00	0.1539
2217.00	0.1540
2220.00	0.1541
2223.00	0.1543
2226.00	0.1536
2229.00	0.1534
2232.00	0.1534
2235.00	0.1534
2238.00	0.1532
2241.00	0.1533
2244.00	0.1534
2247.00	0.1531
2250.00	0.1529
2253.00	0.1532
2256.00	0.1534
2259.00	0.1541
2262.00	0.1540
2265.00	0.1542
2268.00	0.1539
2271.00	0.1535
2274.00	0.1530
2277.00	0.1532
2280.00	0.1534
2283.00	0.1533
2286.00	0.1532
2289.00	0.1536
2292.00	0.1538
2295.00	0.1539
2298.00	0.1533
2301.00	0.1531
2304.00	0.1532
2307.00	0.1529
2310.00	0.1527
2313.00	0.1526
2316.00	0.1526
2319.00	0.1521
2322.00	0.1525
2325.00	0.1529
2328.00	0.1523
2331.00	0.1520
2334.00	0.1526
2337.00	0.1519
2340.00	0.1513
2343.00	0.1510
2346.00	0.1519
2349.00	0.1518
2352.00	0.1517
2355.00	0.1517
2358.00	0.1519
2361.00	0.1515
2364.00	0.1510
2367.00	0.1509
2370.00	0.1509
2373.00	0.1502
2376.00	0.1501
2379.00	0.1508
2382.00	0.1501
2385.00	0.1500
2388.00	0.1502
2391.00	0.1497
2394.00	0.1499
2397.00	0.1501
2400.00	0.1493
2403.00	0.1485
2406.00	0.1490
2409.00	0.1489
2412.00	0.1489
2415.00	0.1490
2418.00	0.1492
2421.00	0.1489
2424.00	0.1480
2427.00	0.1481
2430.00	0.1480
2433.00	0.1476
2436.00	0.1481
2439.00	0.1480
2442.00	0.1475
2445.00	0.1472
2448.00	0.1465
2451.00	0.1463
2454.00	0.1463
2457.00	0.1463
2460.00	0.1463
2463.00	0.1461
2466.00	0.1451
2469.00	0.1455
2472.00	0.1451
2475.00	0.1451
2478.00	0.1455
2481.00	0.1455
2484.00	0.1446
2487.00	0.1450
2490.00	0.1446
2493.00	0.1439
2496.00	0.1440
2499.00	0.1432
2502.00	0.1443
2505.00	0.1452
2508.00	0.1445
2511.00	0.1446
2514.00	0.1443
2517.00	0.1446
2520.00	0.1447
2523.00	0.1442
2526.00	0.1435
2529.00	0.1432
2532.00	0.1430
2535.00	0.1429
2538.00	0.1427
2541.00	0.1425
2544.00	0.1423
2547.00	0.1411
2550.00	0.1408
2553.00	0.1405
2556.00	0.1401
2559.00	0.1398
2562.00	0.1412
2565.00	0.1415
2568.00	0.1412
2571.00	0.1405
2574.00	0.1413
2577.00	0.1420
2580.00	0.1413
2583.00	0.1402
2586.00	0.1387
2589.00	0.1396
2592.00	0.1398
2595.00	0.1391
2598.00	0.1383
2601.00	0.1388
2604.00	0.1385
2607.00	0.1372
2610.00	0.1369
2613.00	0.1372
2616.00	0.1381
2619.00	0.1384
2622.00	0.1372
2625.00	0.1365
2628.00	0.1369
2631.00	0.1371
2634.00	0.1367
2637.00	0.1362
2640.00	0.1358
2643.00	0.1357
2646.00	0.1358
2649.00	0.1357
2652.00	0.1356
2655.00	0.1355
2658.00	0.1348
2661.00	0.1332
2664.00	0.1336
2667.00	0.1345
2670.00	0.1352
2673.00	0.1346
2676.00	0.1330
2679.00	0.1323
2682.00	0.1325
2685.00	0.1306
2688.00	0.1302
2691.00	0.1323
2694.00	0.1359
2697.00	0.1410
2700.00	0.1500
2703.00	0.1605
2706.00	0.1716
2709.00	0.1829
2712.00	0.1915
2715.00	0.1987
2718.00	0.2012
2721.00	0.2046
2724.00	0.2022
2727.00	0.2003
2730.00	0.1933
2733.00	0.1865
2736.00	0.1816
2739.00	0.1748
2742.00	0.1707
2745.00	0.1633
2748.00	0.1555
2751.00	0.1479
2754.00	0.1417
2757.00	0.1344
2760.00	0.1276
2763.00	0.1228
2766.00	0.1176
2769.00	0.1153
2772.00	0.1122
2775.00	0.1114
2778.00	0.1098
2781.00	0.1085
2784.00	0.1075
2787.00	0.1060
2790.00	0.1062
2793.00	0.1056
2796.00	0.1057
2799.00	0.1051
2802.00	0.1048
2805.00	0.1060
2808.00	0.1067
2811.00	0.1071
2814.00	0.1077
2817.00	0.1088
2820.00	0.1097
2823.00	0.1106
2826.00	0.1114
2829.00	0.1122
2832.00	0.1128
2835.00	0.1138
2838.00	0.1146
2841.00	0.1152
2844.00	0.1159
2847.00	0.1161
2850.00	0.1170
2853.00	0.1173
2856.00	0.1178
2859.00	0.1179
2862.00	0.1182
2865.00	0.1183
2868.00	0.1188
2871.00	0.1193
2874.00	0.1194
2877.00	0.1195
2880.00	0.1195
2883.00	0.1197
2886.00	0.1196
2889.00	0.1197
2892.00	0.1199
2895.00	0.1199
2898.00	0.1197
2901.00	0.1197
2904.00	0.1196
2907.00	0.1196
2910.00	0.1196
2913.00	0.1195
2916.00	0.1198
2919.00	0.1202
2922.00	0.1205
2925.00	0.1203
2928.00	0.1202
2931.00	0.1199
2934.00	0.1198
2937.00	0.1196
2940.00	0.1192
2943.00	0.1192
2946.00	0.1191
2949.00	0.1187
2952.00	0.1189
2955.00	0.1192
2958.00	0.1193
2961.00	0.1189
2964.00	0.1190
2967.00	0.1188
2970.00	0.1190
2973.00	0.1193
2976.00	0.1188
2979.00	0.1187
2982.00	0.1186
2985.00	0.1182
2988.00	0.1183
2991.00	0.1187
2994.00	0.1185
2997.00	0.1193
3000.00	0.1206
3003.00	0.1211
3006.00	0.1217
3009.00	0.1222
3012.00	0.1221
3015.00	0.1218
3018.00	0.1217
3021.00	0.1216
3024.00	0.1212
3027.00	0.1212
3030.00	0.1210
3033.00	0.1207
3036.00	0.1202
3039.00	0.1203
3042.00	0.1198
3045.00	0.1196
3048.00	0.1194
3051.00	0.1195
3054.00	0.1199
3057.00	0.1200
3060.00	0.1202
3063.00	0.1201
3066.00	0.1201
3069.00	0.1197
3072.00	0.1197
3075.00	0.1193
3078.00	0.1191
3081.00	0.1185
3084.00	0.1183
3087.00	0.1180
3090.00	0.1177
3093.00	0.1178
3096.00	0.1177
3099.00	0.1175
3102.00	0.1175
3105.00	0.1176
3108.00	0.1176
3111.00	0.1174
3114.00	0.1173
3117.00	0.1177
3120.00	0.1171
3123.00	0.1166
3126.00	0.1165
3129.00	0.1166
3132.00	0.1159
3135.00	0.1156
3138.00	0.1154
3141.00	0.1155
3144.00	0.1150
3147.00	0.1148
3150.00	0.1146
3153.00	0.1145
3156.00	0.1135
3159.00	0.1132
3162.00	0.1129
3165.00	0.1125
3168.00	0.1130
3171.00	0.1132
3174.00	0.1136
3177.00	0.1135
3180.00	0.1130
3183.00	0.1128
3186.00	0.1129
3189.00	0.1137
3192.00	0.1133
3195.00	0.1137
3198.00	0.1143
3201.00	0.1133
3204.00	0.1123
3207.00	0.1105
3210.00	0.1115
3213.00	0.1100
3216.00	0.1092
3219.00	0.1096
3222.00	0.1092
3225.00	0.1108
3228.00	0.1107
3231.00	0.1105
3234.00	0.1101
3237.00	0.1103
3240.00	0.1104
3243.00	0.1084
3246.00	0.1076
3249.00	0.1088
3252.00	0.1090
3255.00	0.1060
3258.00	0.1068
3261.00	0.1089
3264.00	0.1060
3267.00	0.1060
3270.00	0.1050
3273.00	0.1035
3276.00	0.1009
3279.00	0.1006
3282.00	0.1021
3285.00	0.1027
3288.00	0.1033
3291.00	0.1055
3294.00	0.1088
3297.00	0.1099
3300.00	0.1101