File: CF_UV_VIS_0mM.txt
"20-30mM-1_CF0mM - RawData"
"Wavelength nm."	"Abs."
300.00	0.0634
303.00	0.0630
306.00	0.0612
309.00	0.0613
312.00	0.0601
315.00	0.0596
318.00	0.0597
321.00	0.0595
324.00	0.0604
327.00	0.0605
330.00	0.0604
333.00	0.0597
336.00	0.0617
339.00	0.0658
342.00	0.0671
345.00	0.0676
348.00	0.0696
351.00	0.0714
354.00	0.0732
357.00	0.0749
360.00	0.0767
363.00	0.0779
366.00	0.0813
369.00	0.0857
372.00	0.0863
375.00	0.0880
378.00	0.0905
381.00	0.0927
384.00	0.0953
387.00	0.0992
390.00	0.1024
393.00	0.1059
396.00	0.1098
399.00	0.1133
402.00	0.1172
405.00	0.1216
408.00	0.1255
411.00	0.1295
414.00	0.1341
417.00	0.1391
420.00	0.1437
423.00	0.1488
426.00	0.1543
429.00	0.1605
432.00	0.1661
435.00	0.1722
438.00	0.1789
441.00	0.1858
444.00	0.1929
447.00	0.2008
450.00	0.2085
453.00	0.2169
456.00	0.2259
459.00	0.2346
462.00	0.2439
465.00	0.2526
468.00	0.2612
471.00	0.2693
474.00	0.2779
477.00	0.2874
480.00	0.2964
483.00	0.3050
486.00	0.3132
489.00	0.3210
492.00	0.3284
495.00	0.3353
498.00	0.3422
501.00	0.3489
504.00	0.3552
507.00	0.3611
510.00	0.3663
513.00	0.3709
516.00	0.3743
519.00	0.3761
522.00	0.3776
525.00	0.3768
528.00	0.3755
531.00	0.3758
534.00	0.3742
537.00	0.3721
540.00	0.3712
543.00	0.3705
546.00	0.3698
549.00	0.3682
552.00	0.3659
555.00	0.3625
558.00	0.3572
561.00	0.3502
564.00	0.3425
567.00	0.3330
570.00	0.3224
573.00	0.3122
576.00	0.3013
579.00	0.2917
582.00	0.2834
585.00	0.2756
588.00	0.2695
591.00	0.2646
594.00	0.2601
597.00	0.2560
600.00	0.2524
603.00	0.2481
606.00	0.2417
609.00	0.2338
612.00	0.2246
615.00	0.2128
618.00	0.2006
621.00	0.1873
624.00	0.1740
627.00	0.1606
630.00	0.1474
633.00	0.1347
636.00	0.1237
639.00	0.1140
642.00	0.1048
645.00	0.0975
648.00	0.0915
651.00	0.0867
654.00	0.0817
657.00	0.0771
660.00	0.0741
663.00	0.0717
666.00	0.0691
669.00	0.0667
672.00	0.0658
675.00	0.0636
678.00	0.0619
681.00	0.0607
684.00	0.0597
687.00	0.0582
690.00	0.0565
693.00	0.0563
696.00	0.0553
699.00	0.0540
702.00	0.0533
705.00	0.0530
708.00	0.0526
711.00	0.0531
714.00	0.0518
717.00	0.0510
720.00	0.0502
723.00	0.0498
726.00	0.0479
729.00	0.0476
732.00	0.0476
735.00	0.0469
738.00	0.0459
741.00	0.0461
744.00	0.0454
747.00	0.0450
750.00	0.0452
753.00	0.0446
756.00	0.0447
759.00	0.0444
762.00	0.0437
765.00	0.0440
768.00	0.0438
771.00	0.0428
774.00	0.0423
777.00	0.0429
780.00	0.0421
783.00	0.0411
786.00	0.0410
789.00	0.0404
792.00	0.0388
795.00	0.0371
798.00	0.0345
801.00	0.0321
804.00	0.0306
807.00	0.0282
810.00	0.0271
813.00	0.0258
816.00	0.0250
819.00	0.0248
822.00	0.0245
825.00	0.0243
828.00	0.0243
831.00	0.0247
834.00	0.0243
837.00	0.0238
840.00	0.0236
843.00	0.0239
846.00	0.0238
849.00	0.0230
852.00	0.0229
855.00	0.0231
858.00	0.0226
861.00	0.0222
864.00	0.0224
867.00	0.0222
870.00	0.0220
873.00	0.0217
876.00	0.0219
879.00	0.0212
882.00	0.0209
885.00	0.0212
888.00	0.0207
891.00	0.0207
894.00	0.0204
897.00	0.0202
900.00	0.0199
903.00	0.0197
906.00	0.0199
909.00	0.0199
912.00	0.0196
915.00	0.0195
918.00	0.0197
921.00	0.0197
924.00	0.0190
927.00	0.0190
930.00	0.0190
933.00	0.0186
936.00	0.0188
939.00	0.0189
942.00	0.0186
945.00	0.0185
948.00	0.0184
951.00	0.0183
954.00	0.0180
957.00	0.0178
960.00	0.0179
963.00	0.0180
966.00	0.0178
969.00	0.0183
972.00	0.0175
975.00	0.0171
978.00	0.0174
981.00	0.0171
984.00	0.0174
987.00	0.0171
990.00	0.0171
993.00	0.0172
996.00	0.0173
999.00	0.0174
1002.00	0.0169
1005.00	0.0167
1008.00	0.0170
1011.00	0.0167
1014.00	0.0160
1017.00	0.0161
1020.00	0.0164
1023.00	0.0165
1026.00	0.0159
1029.00	0.0162
1032.00	0.0156
1035.00	0.0154
1038.00	0.0154
1041.00	0.0157
1044.00	0.0158
1047.00	0.0163
1050.00	0.0154
1053.00	0.0152
1056.00	0.0151
1059.00	0.0151
1062.00	0.0145
1065.00	0.0147
1068.00	0.0154
1071.00	0.0150
1074.00	0.0145
1077.00	0.0145
1080.00	0.0143
1083.00	0.0142
1086.00	0.0143
1089.00	0.0146
1092.00	0.0144
1095.00	0.0139
1098.00	0.0140
1101.00	0.0144
1104.00	0.0139
1107.00	0.0139
1110.00	0.0135
1113.00	0.0138
1116.00	0.0138
1119.00	0.0134
1122.00	0.0135
1125.00	0.0136
1128.00	0.0134
1131.00	0.0132
1134.00	0.0133
1137.00	0.0135
1140.00	0.0135
1143.00	0.0131
1146.00	0.0131
1149.00	0.0132
1152.00	0.0132
1155.00	0.0128
1158.00	0.0129
1161.00	0.0132
1164.00	0.0128
1167.00	0.0124
1170.00	0.0130
1173.00	0.0132
1176.00	0.0127
1179.00	0.0127
1182.00	0.0127
1185.00	0.0126
1188.00	0.0124
1191.00	0.0126
1194.00	0.0129
1197.00	0.0132
1200.00	0.0125
1203.00	0.0128
1206.00	0.0132
1209.00	0.0130
1212.00	0.0130
1215.00	0.0126
1218.00	0.0126
1221.00	0.0127
1224.00	0.0127
1227.00	0.0126
1230.00	0.0130
1233.00	0.0133
1236.00	0.0129
1239.00	0.0125
1242.00	0.0123
1245.00	0.0126
1248.00	0.0125
1251.00	0.0121
1254.00	0.0121
1257.00	0.0121
1260.00	0.0118
1263.00	0.0107
1266.00	0.0109
1269.00	0.0120
1272.00	0.0117
1275.00	0.0117
1278.00	0.0118
1281.00	0.0117
1284.00	0.0117
1287.00	0.0114
1290.00	0.0110
1293.00	0.0112
1296.00	0.0106
1299.00	0.0111
1302.00	0.0112
1305.00	0.0111
1308.00	0.0107
1311.00	0.0107
1314.00	0.0107
1317.00	0.0108
1320.00	0.0103
1323.00	0.0103
1326.00	0.0103
1329.00	0.0100
1332.00	0.0097
1335.00	0.0097
1338.00	0.0101
1341.00	0.0103
1344.00	0.0101
1347.00	0.0099
1350.00	0.0097
1353.00	0.0106
1356.00	0.0101
1359.00	0.0097
1362.00	0.0102
1365.00	0.0104
1368.00	0.0104
1371.00	0.0102
1374.00	0.0106
1377.00	0.0110
1380.00	0.0108
1383.00	0.0106
1386.00	0.0109
1389.00	0.0110
1392.00	0.0110
1395.00	0.0103
1398.00	0.0107
1401.00	0.0109
1404.00	0.0106
1407.00	0.0103
1410.00	0.0104
1413.00	0.0103
1416.00	0.0096
1419.00	0.0096
1422.00	0.0106
1425.00	0.0105
1428.00	0.0104
1431.00	0.0092
1434.00	0.0096
1437.00	0.0103
1440.00	0.0102
1443.00	0.0095
1446.00	0.0091
1449.00	0.0094
1452.00	0.0102
1455.00	0.0097
1458.00	0.0099
1461.00	0.0095
1464.00	0.0095
1467.00	0.0091
1470.00	0.0092
1473.00	0.0101
1476.00	0.0095
1479.00	0.0084
1482.00	0.0086
1485.00	0.0092
1488.00	0.0088
1491.00	0.0086
1494.00	0.0084
1497.00	0.0091
1500.00	0.0088
1503.00	0.0088
1506.00	0.0089
1509.00	0.0095
1512.00	0.0094
1515.00	0.0093
1518.00	0.0090
1521.00	0.0090
1524.00	0.0089
1527.00	0.0091
1530.00	0.0088
1533.00	0.0085
1536.00	0.0087
1539.00	0.0088
1542.00	0.0086
1545.00	0.0089
1548.00	0.0088
1551.00	0.0090
1554.00	0.0089
1557.00	0.0085
1560.00	0.0085
1563.00	0.0090
1566.00	0.0089
1569.00	0.0082
1572.00	0.0082
1575.00	0.0087
1578.00	0.0088
1581.00	0.0085
1584.00	0.0085
1587.00	0.0089
1590.00	0.0091
1593.00	0.0087
1596.00	0.0086
1599.00	0.0090
1602.00	0.0093
1605.00	0.0092
1608.00	0.0090
1611.00	0.0090
1614.00	0.0091
1617.00	0.0092
1620.00	0.0087
1623.00	0.0088
1626.00	0.0095
1629.00	0.0095
1632.00	0.0089
1635.00	0.0085
1638.00	0.0085
1641.00	0.0084
1644.00	0.0080
1647.00	0.0068
1650.00	0.0055
1653.00	0.0047
1656.00	0.0040
1659.00	0.0033
1662.00	0.0035
1665.00	0.0032
1668.00	0.0028
1671.00	0.0027
1674.00	0.0028
1677.00	0.0032
1680.00	0.0024
1683.00	0.0026
1686.00	0.0029
1689.00	0.0029
1692.00	0.0023
1695.00	0.0021
1698.00	0.0027
1701.00	0.0030
1704.00	0.0025
1707.00	0.0024
1710.00	0.0027
1713.00	0.0027
1716.00	0.0031
1719.00	0.0028
1722.00	0.0027
1725.00	0.0024
1728.00	0.0027
1731.00	0.0032
1734.00	0.0029
1737.00	0.0030
1740.00	0.0029
1743.00	0.0032
1746.00	0.0029
1749.00	0.0027
1752.00	0.0029
1755.00	0.0034
1758.00	0.0034
1761.00	0.0030
1764.00	0.0032
1767.00	0.0030
1770.00	0.0032
1773.00	0.0029
1776.00	0.0032
1779.00	0.0027
1782.00	0.0030
1785.00	0.0036
1788.00	0.0034
1791.00	0.0034
1794.00	0.0034
1797.00	0.0034
1800.00	0.0032
1803.00	0.0032
1806.00	0.0037
1809.00	0.0038
1812.00	0.0035
1815.00	0.0026
1818.00	0.0025
1821.00	0.0029
1824.00	0.0031
1827.00	0.0039
1830.00	0.0038
1833.00	0.0040
1836.00	0.0031
1839.00	0.0030
1842.00	0.0035
1845.00	0.0037
1848.00	0.0033
1851.00	0.0026
1854.00	0.0032
1857.00	0.0034
1860.00	0.0035
1863.00	0.0034
1866.00	0.0029
1869.00	0.0034
1872.00	0.0032
1875.00	0.0035
1878.00	0.0035
1881.00	0.0032
1884.00	0.0033
1887.00	0.0031
1890.00	0.0030
1893.00	0.0024
1896.00	0.0020
1899.00	0.0022
1902.00	0.0027
1905.00	0.0033
1908.00	0.0030
1911.00	0.0031
1914.00	0.0036
1917.00	0.0037
1920.00	0.0033
1923.00	0.0029
1926.00	0.0032
1929.00	0.0030
1932.00	0.0025
1935.00	0.0024
1938.00	0.0029
1941.00	0.0033
1944.00	0.0029
1947.00	0.0030
1950.00	0.0031
1953.00	0.0028
1956.00	0.0033
1959.00	0.0034
1962.00	0.0034
1965.00	0.0031
1968.00	0.0031
1971.00	0.0033
1974.00	0.0025
1977.00	0.0029
1980.00	0.0034
1983.00	0.0029
1986.00	0.0031
1989.00	0.0036
1992.00	0.0037
1995.00	0.0034
1998.00	0.0030
2001.00	0.0038
2004.00	0.0035
2007.00	0.0031
2010.00	0.0032
2013.00	0.0027
2016.00	0.0027
2019.00	0.0028
2022.00	0.0033
2025.00	0.0034
2028.00	0.0027
2031.00	0.0028
2034.00	0.0033
2037.00	0.0037
2040.00	0.0030
2043.00	0.0019
2046.00	0.0026
2049.00	0.0024
2052.00	0.0028
2055.00	0.0038
2058.00	0.0035
2061.00	0.0032
2064.00	0.0032
2067.00	0.0030
2070.00	0.0032
2073.00	0.0027
2076.00	0.0024
2079.00	0.0027
2082.00	0.0031
2085.00	0.0030
2088.00	0.0031
2091.00	0.0027
2094.00	0.0028
2097.00	0.0017
2100.00	0.0025
2103.00	0.0027
2106.00	0.0019
2109.00	0.0021
2112.00	0.0030
2115.00	0.0030
2118.00	0.0032
2121.00	0.0027
2124.00	0.0023
2127.00	0.0030
2130.00	0.0032
2133.00	0.0030
2136.00	0.0034
2139.00	0.0024
2142.00	0.0028
2145.00	0.0034
2148.00	0.0034
2151.00	0.0029
2154.00	0.0025
2157.00	0.0026
2160.00	0.0025
2163.00	0.0024
2166.00	0.0028
2169.00	0.0032
2172.00	0.0028
2175.00	0.0026
2178.00	0.0026
2181.00	0.0039
2184.00	0.0040
2187.00	0.0034
2190.00	0.0035
2193.00	0.0040
2196.00	0.0035
2199.00	0.0044
2202.00	0.0047
2205.00	0.0042
2208.00	0.0041
2211.00	0.0043
2214.00	0.0045
2217.00	0.0045
2220.00	0.0044
2223.00	0.0039
2226.00	0.0039
2229.00	0.0036
2232.00	0.0039
2235.00	0.0044
2238.00	0.0037
2241.00	0.0048
2244.00	0.0057
2247.00	0.0051
2250.00	0.0043
2253.00	0.0049
2256.00	0.0050
2259.00	0.0047
2262.00	0.0045
2265.00	0.0048
2268.00	0.0044
2271.00	0.0044
2274.00	0.0035
2277.00	0.0036
2280.00	0.0038
2283.00	0.0035
2286.00	0.0031
2289.00	0.0030
2292.00	0.0031
2295.00	0.0031
2298.00	0.0028
2301.00	0.0031
2304.00	0.0031
2307.00	0.0034
2310.00	0.0031
2313.00	0.0027
2316.00	0.0032
2319.00	0.0034
2322.00	0.0031
2325.00	0.0034
2328.00	0.0027
2331.00	0.0025
2334.00	0.0034
2337.00	0.0028
2340.00	0.0031
2343.00	0.0032
2346.00	0.0033
2349.00	0.0028
2352.00	0.0034
2355.00	0.0037
2358.00	0.0030
2361.00	0.0027
2364.00	0.0028
2367.00	0.0028
2370.00	0.0031
2373.00	0.0033
2376.00	0.0031
2379.00	0.0030
2382.00	0.0024
2385.00	0.0024
2388.00	0.0033
2391.00	0.0027
2394.00	0.0019
2397.00	0.0026
2400.00	0.0028
2403.00	0.0020
2406.00	0.0022
2409.00	0.0027
2412.00	0.0032
2415.00	0.0031
2418.00	0.0038
2421.00	0.0031
2424.00	0.0024
2427.00	0.0029
2430.00	0.0028
2433.00	0.0028
2436.00	0.0032
2439.00	0.0035
2442.00	0.0028
2445.00	0.0026
2448.00	0.0029
2451.00	0.0031
2454.00	0.0031
2457.00	0.0028
2460.00	0.0031
2463.00	0.0031
2466.00	0.0022
2469.00	0.0024
2472.00	0.0033
2475.00	0.0037
2478.00	0.0033
2481.00	0.0027
2484.00	0.0025
2487.00	0.0031
2490.00	0.0034
2493.00	0.0025
2496.00	0.0031
2499.00	0.0027
2502.00	0.0034
2505.00	0.0040
2508.00	0.0039
2511.00	0.0045
2514.00	0.0044
2517.00	0.0046
2520.00	0.0049
2523.00	0.0050
2526.00	0.0048
2529.00	0.0046
2532.00	0.0042
2535.00	0.0046
2538.00	0.0049
2541.00	0.0055
2544.00	0.0055
2547.00	0.0050
2550.00	0.0045
2553.00	0.0043
2556.00	0.0041
2559.00	0.0040
2562.00	0.0050
2565.00	0.0051
2568.00	0.0053
2571.00	0.0054
2574.00	0.0057
2577.00	0.0054
2580.00	0.0043
2583.00	0.0043
2586.00	0.0051
2589.00	0.0055
2592.00	0.0052
2595.00	0.0046
2598.00	0.0033
2601.00	0.0030
2604.00	0.0038
2607.00	0.0049
2610.00	0.0054
2613.00	0.0058
2616.00	0.0067
2619.00	0.0066
2622.00	0.0052
2625.00	0.0054
2628.00	0.0063
2631.00	0.0068
2634.00	0.0067
2637.00	0.0070
2640.00	0.0077
2643.00	0.0078
2646.00	0.0074
2649.00	0.0068
2652.00	0.0062
2655.00	0.0056
2658.00	0.0050
2661.00	0.0048
2664.00	0.0063
2667.00	0.0096
2670.00	0.0159
2673.00	0.0197
2676.00	0.0224
2679.00	0.0239
2682.00	0.0257
2685.00	0.0310
2688.00	0.0387
2691.00	0.0492
2694.00	0.0622
2697.00	0.0760
2700.00	0.0882
2703.00	0.0978
2706.00	0.1073
2709.00	0.1127
2712.00	0.1192
2715.00	0.1196
2718.00	0.1188
2721.00	0.1178
2724.00	0.1143
2727.00	0.1141
2730.00	0.1107
2733.00	0.1084
2736.00	0.1025
2739.00	0.0963
2742.00	0.0933
2745.00	0.0903
2748.00	0.0901
2751.00	0.0850
2754.00	0.0798
2757.00	0.0726
2760.00	0.0699
2763.00	0.0673
2766.00	0.0644
2769.00	0.0611
2772.00	0.0562
2775.00	0.0529
2778.00	0.0494
2781.00	0.0470
2784.00	0.0439
2787.00	0.0421
2790.00	0.0396
2793.00	0.0378
2796.00	0.0355
2799.00	0.0327
2802.00	0.0302
2805.00	0.0284
2808.00	0.0266
2811.00	0.0249
2814.00	0.0228
2817.00	0.0214
2820.00	0.0200
2823.00	0.0191
2826.00	0.0183
2829.00	0.0175
2832.00	0.0164
2835.00	0.0154
2838.00	0.0143
2841.00	0.0132
2844.00	0.0123
2847.00	0.0119
2850.00	0.0116
2853.00	0.0113
2856.00	0.0107
2859.00	0.0103
2862.00	0.0100
2865.00	0.0094
2868.00	0.0092
2871.00	0.0088
2874.00	0.0084
2877.00	0.0080
2880.00	0.0076
2883.00	0.0075
2886.00	0.0069
2889.00	0.0071
2892.00	0.0065
2895.00	0.0064
2898.00	0.0060
2901.00	0.0058
2904.00	0.0056
2907.00	0.0054
2910.00	0.0054
2913.00	0.0053
2916.00	0.0053
2919.00	0.0052
2922.00	0.0046
2925.00	0.0041
2928.00	0.0039
2931.00	0.0041
2934.00	0.0041
2937.00	0.0042
2940.00	0.0041
2943.00	0.0047
2946.00	0.0048
2949.00	0.0045
2952.00	0.0040
2955.00	0.0036
2958.00	0.0034
2961.00	0.0031
2964.00	0.0035
2967.00	0.0041
2970.00	0.0043
2973.00	0.0044
2976.00	0.0035
2979.00	0.0033
2982.00	0.0036
2985.00	0.0039
2988.00	0.0040
2991.00	0.0038
2994.00	0.0034
2997.00	0.0052
3000.00	0.0080
3003.00	0.0098
3006.00	0.0115
3009.00	0.0131
3012.00	0.0130
3015.00	0.0128
3018.00	0.0126
3021.00	0.0126
3024.00	0.0125
3027.00	0.0125
3030.00	0.0125
3033.00	0.0124
3036.00	0.0123
3039.00	0.0127
3042.00	0.0123
3045.00	0.0124
3048.00	0.0124
3051.00	0.0127
3054.00	0.0129
3057.00	0.0130
3060.00	0.0134
3063.00	0.0134
3066.00	0.0137
3069.00	0.0136
3072.00	0.0135
3075.00	0.0138
3078.00	0.0137
3081.00	0.0139
3084.00	0.0137
3087.00	0.0136
3090.00	0.0133
3093.00	0.0132
3096.00	0.0131
3099.00	0.0131
3102.00	0.0131
3105.00	0.0130
3108.00	0.0130
3111.00	0.0128
3114.00	0.0127
3117.00	0.0125
3120.00	0.0120
3123.00	0.0122
3126.00	0.0119
3129.00	0.0116
3132.00	0.0117
3135.00	0.0114
3138.00	0.0113
3141.00	0.0111
3144.00	0.0109
3147.00	0.0107
3150.00	0.0102
3153.00	0.0104
3156.00	0.0103
3159.00	0.0110
3162.00	0.0110
3165.00	0.0116
3168.00	0.0117
3171.00	0.0114
3174.00	0.0121
3177.00	0.0120
3180.00	0.0121
3183.00	0.0120
3186.00	0.0121
3189.00	0.0124
3192.00	0.0123
3195.00	0.0119
3198.00	0.0125
3201.00	0.0125
3204.00	0.0128
3207.00	0.0119
3210.00	0.0125
3213.00	0.0123
3216.00	0.0121
3219.00	0.0125
3222.00	0.0115
3225.00	0.0126
3228.00	0.0124
3231.00	0.0127
3234.00	0.0142
3237.00	0.0135
3240.00	0.0134
3243.00	0.0127
3246.00	0.0111
3249.00	0.0109
3252.00	0.0123
3255.00	0.0109
3258.00	0.0118
3261.00	0.0097
3264.00	0.0102
3267.00	0.0081
3270.00	0.0067
3273.00	0.0034
3276.00	0.0032
3279.00	0.0051
3282.00	0.0086
3285.00	0.0109
3288.00	0.0143
3291.00	0.0153
3294.00	0.0270
3297.00	0.0362
3300.00	0.0420