File: THF_UV_VIS_2mM.txt
"RawData - P3h-Doped F4tcnq_THF-2mmol"
"Wavelength nm.","Abs."
300.00,
303.00,
306.00,
309.00,
312.00,
315.00,
318.00,
321.00,
324.00,
327.00,
330.00,
333.00,
336.00,
339.00,
342.00,
345.00,
348.00,
351.00,
354.00,
357.00,
360.00,
363.00,
366.00,
369.00,
372.00,
375.00,
378.00,
381.00,
384.00,
387.00,
390.00,
393.00,
396.00,
399.00,
402.00,
405.00,
408.00,
411.00,
414.00,
417.00,
420.00,
423.00,
426.00,
429.00,
432.00,
435.00,
438.00,
441.00,
444.00,
447.00,
450.00,
453.00,
456.00,
459.00,
462.00,
465.00,
468.00,
471.00,
474.00,
477.00,
480.00,
483.00,
486.00,
489.00,
492.00,
495.00,
498.00,
501.00,
504.00,
507.00,
510.00,
513.00,
516.00,
519.00,
522.00,
525.00,
528.00,
531.00,
534.00,
537.00,
540.00,
543.00,
546.00,
549.00,
552.00,
555.00,
558.00,
561.00,
564.00,
567.00,
570.00,
573.00,
576.00,
579.00,
582.00,
585.00,
588.00,
591.00,
594.00,
597.00,
600.00,
603.00,
606.00,
609.00,
612.00,
615.00,
618.00,
621.00,
624.00,
627.00,
630.00,
633.00,
636.00,
639.00,
642.00,
645.00,
648.00,
651.00,
654.00,
657.00,
660.00,
663.00,
666.00,
669.00,
672.00,
675.00,
678.00,
681.00,
684.00,
687.00,
690.00,
693.00,
696.00,
699.00,
702.00,
705.00,
708.00,
711.00,
714.00,
717.00,
720.00,
723.00,
726.00,
729.00,
732.00,
735.00,
738.00,
741.00,
744.00,
747.00,
750.00,
753.00,
756.00,
759.00,
762.00,
765.00,
768.00,
771.00,
774.00,
777.00,
780.00,
783.00,
786.00,
789.00,
792.00,
795.00,
798.00,
801.00,
804.00,
807.00,
810.00,
813.00,
816.00,
819.00,
822.00,
825.00,
828.00,
831.00,
834.00,
837.00,
840.00,
843.00,
846.00,
849.00,
852.00,
855.00,
858.00,
861.00,
864.00,
867.00,
870.00,
873.00,
876.00,
879.00,
882.00,
885.00,
888.00,
891.00,
894.00,
897.00,
900.00,
903.00,
906.00,
909.00,
912.00,
915.00,
918.00,
921.00,
924.00,
927.00,
930.00,
933.00,
936.00,
939.00,
942.00,
945.00,
948.00,
951.00,
954.00,
957.00,
960.00,
963.00,
966.00,
969.00,
972.00,
975.00,
978.00,
981.00,
984.00,
987.00,
990.00,
993.00,
996.00,
999.00,
1002.00,0.1274
1005.00,
1008.00,0.1216
1011.00,
1014.00,0.1160
1017.00,
1020.00,0.1105
1023.00,
1026.00,0.1054
1029.00,
1032.00,0.1006
1035.00,
1038.00,0.0962
1041.00,
1044.00,0.0918
1047.00,
1050.00,0.0880
1053.00,
1056.00,0.0842
1059.00,
1062.00,0.0809
1065.00,
1068.00,0.0782
1071.00,
1074.00,0.0756
1077.00,
1080.00,0.0731
1083.00,
1086.00,0.0714
1089.00,
1092.00,0.0696
1095.00,
1098.00,0.0682
1101.00,
1104.00,0.0668
1107.00,
1110.00,0.0656
1113.00,
1116.00,0.0646
1119.00,
1122.00,0.0642
1125.00,
1128.00,0.0635
1131.00,
1134.00,0.0625
1137.00,
1140.00,0.0620
1143.00,
1146.00,0.0617
1149.00,
1152.00,0.0616
1155.00,
1158.00,0.0617
1161.00,
1164.00,0.0615
1167.00,
1170.00,0.0616
1173.00,
1176.00,0.0616
1179.00,
1182.00,0.0620
1185.00,
1188.00,0.0619
1191.00,
1194.00,0.0624
1197.00,
1200.00,0.0628
1203.00,
1206.00,0.0633
1209.00,
1212.00,0.0636
1215.00,
1218.00,0.0643
1221.00,
1224.00,0.0645
1227.00,
1230.00,0.0654
1233.00,
1236.00,0.0661
1239.00,
1242.00,0.0669
1245.00,
1248.00,0.0676
1251.00,
1254.00,0.0684
1257.00,
1260.00,0.0693
1263.00,
1266.00,0.0700
1269.00,
1272.00,0.0711
1275.00,
1278.00,0.0721
1281.00,
1284.00,0.0730
1287.00,
1290.00,0.0741
1293.00,
1296.00,0.0755
1299.00,
1302.00,0.0770
1305.00,
1308.00,0.0777
1311.00,
1314.00,0.0788
1317.00,
1320.00,0.0809
1323.00,
1326.00,0.0825
1329.00,
1332.00,0.0840
1335.00,
1338.00,0.0862
1341.00,
1344.00,0.0874
1347.00,
1350.00,0.0891
1353.00,
1356.00,0.0913
1359.00,
1362.00,0.0931
1365.00,
1368.00,0.0953
1371.00,
1374.00,0.0974
1377.00,
1380.00,0.0994
1383.00,
1386.00,0.1017
1389.00,
1392.00,0.1039
1395.00,
1398.00,0.1056
1401.00,
1404.00,0.1078
1407.00,
1410.00,0.1098
1413.00,
1416.00,0.1125
1419.00,
1422.00,0.1153
1425.00,
1428.00,0.1180
1431.00,
1434.00,0.1207
1437.00,
1440.00,0.1231
1443.00,
1446.00,0.1261
1449.00,
1452.00,0.1292
1455.00,
1458.00,0.1323
1461.00,
1464.00,0.1354
1467.00,
1470.00,0.1390
1473.00,
1476.00,0.1422
1479.00,
1482.00,0.1453
1485.00,
1488.00,0.1488
1491.00,
1494.00,0.1533
1497.00,
1500.00,0.1561
1503.00,
1506.00,0.1596
1509.00,
1512.00,0.1638
1515.00,
1518.00,0.1672
1521.00,
1524.00,0.1713
1527.00,
1530.00,0.1755
1533.00,
1536.00,0.1792
1539.00,
1542.00,0.1838
1545.00,
1548.00,0.1875
1551.00,
1554.00,0.1916
1557.00,
1560.00,0.1960
1563.00,
1566.00,0.2000
1569.00,
1572.00,0.2046
1575.00,
1578.00,0.2089
1581.00,
1584.00,0.2133
1587.00,
1590.00,0.2177
1593.00,
1596.00,0.2221
1599.00,
1602.00,0.2265
1605.00,
1608.00,0.2309
1611.00,
1614.00,0.2352
1617.00,
1620.00,0.2397
1623.00,
1626.00,0.2446
1629.00,
1632.00,0.2489
1635.00,
1638.00,0.2533
1641.00,
1644.00,0.2575
1647.00,
1650.00,0.2630
1653.00,
1656.00,0.2699
1659.00,
1662.00,0.2740
1665.00,
1668.00,0.2780
1671.00,
1674.00,0.2821
1677.00,
1680.00,0.2858
1683.00,
1686.00,0.2895
1689.00,
1692.00,0.2933
1695.00,
1698.00,0.2970
1701.00,
1704.00,0.3005
1707.00,
1710.00,0.3045
1713.00,
1716.00,0.3077
1719.00,
1722.00,0.3112
1725.00,
1728.00,0.3149
1731.00,
1734.00,0.3186
1737.00,
1740.00,0.3220
1743.00,
1746.00,0.3257
1749.00,
1752.00,0.3287
1755.00,
1758.00,0.3321
1761.00,
1764.00,0.3354
1767.00,
1770.00,0.3387
1773.00,
1776.00,0.3417
1779.00,
1782.00,0.3449
1785.00,
1788.00,0.3479
1791.00,
1794.00,0.3505
1797.00,
1800.00,0.3536
1803.00,
1806.00,0.3569
1809.00,
1812.00,0.3600
1815.00,
1818.00,0.3624
1821.00,
1824.00,0.3664
1827.00,
1830.00,0.3693
1833.00,
1836.00,0.3704
1839.00,
1842.00,0.3742
1845.00,
1848.00,0.3778
1851.00,
1854.00,0.3798
1857.00,
1860.00,0.3805
1863.00,
1866.00,0.3830
1869.00,
1872.00,0.3851
1875.00,
1878.00,0.3869
1881.00,
1884.00,0.3884
1887.00,
1890.00,0.3902
1893.00,
1896.00,0.3919
1899.00,
1902.00,0.3939
1905.00,
1908.00,0.3955
1911.00,
1914.00,0.3960
1917.00,
1920.00,0.3970
1923.00,
1926.00,0.3983
1929.00,
1932.00,0.3995
1935.00,
1938.00,0.4008
1941.00,
1944.00,0.4017
1947.00,
1950.00,0.4027
1953.00,
1956.00,0.4035
1959.00,
1962.00,0.4041
1965.00,
1968.00,0.4047
1971.00,
1974.00,0.4058
1977.00,
1980.00,0.4067
1983.00,
1986.00,0.4074
1989.00,
1992.00,0.4076
1995.00,
1998.00,0.4081
2001.00,
2004.00,0.4087
2007.00,
2010.00,0.4092
2013.00,
2016.00,0.4101
2019.00,
2022.00,0.4101
2025.00,
2028.00,0.4106
2031.00,
2034.00,0.4115
2037.00,
2040.00,0.4118
2043.00,
2046.00,0.4122
2049.00,
2052.00,0.4134
2055.00,
2058.00,0.4146
2061.00,
2064.00,0.4151
2067.00,
2070.00,0.4154
2073.00,
2076.00,0.4161
2079.00,
2082.00,0.4166
2085.00,
2088.00,0.4173
2091.00,
2094.00,0.4170
2097.00,
2100.00,0.4170
2103.00,
2106.00,0.4172
2109.00,
2112.00,0.4174
2115.00,
2118.00,0.4169
2121.00,
2124.00,0.4167
2127.00,
2130.00,0.4162
2133.00,
2136.00,0.4158
2139.00,
2142.00,0.4159
2145.00,
2148.00,0.4151
2151.00,
2154.00,0.4146
2157.00,
2160.00,0.4144
2163.00,
2166.00,0.4143
2169.00,
2172.00,0.4139
2175.00,
2178.00,0.4138
2181.00,
2184.00,0.4136
2187.00,
2190.00,0.4131
2193.00,
2196.00,0.4140
2199.00,
2202.00,0.4146
2205.00,
2208.00,0.4147
2211.00,
2214.00,0.4143
2217.00,
2220.00,0.4134
2223.00,
2226.00,0.4129
2229.00,
2232.00,0.4123
2235.00,
2238.00,0.4113
2241.00,
2244.00,0.4104
2247.00,
2250.00,0.4099
2253.00,
2256.00,0.4088
2259.00,
2262.00,0.4089
2265.00,
2268.00,0.4081
2271.00,
2274.00,0.4074
2277.00,
2280.00,0.4062
2283.00,
2286.00,0.4054
2289.00,
2292.00,0.4045
2295.00,
2298.00,0.4036
2301.00,
2304.00,0.4029
2307.00,
2310.00,0.4018
2313.00,
2316.00,0.4011
2319.00,
2322.00,0.4003
2325.00,
2328.00,0.3992
2331.00,
2334.00,0.3987
2337.00,
2340.00,0.3974
2343.00,
2346.00,0.3966
2349.00,
2352.00,0.3958
2355.00,
2358.00,0.3947
2361.00,
2364.00,0.3939
2367.00,
2370.00,0.3929
2373.00,
2376.00,0.3921
2379.00,
2382.00,0.3916
2385.00,
2388.00,0.3904
2391.00,
2394.00,0.3898
2397.00,
2400.00,0.3891
2403.00,
2406.00,0.3878
2409.00,
2412.00,0.3871
2415.00,
2418.00,0.3872
2421.00,
2424.00,0.3859
2427.00,
2430.00,0.3851
2433.00,
2436.00,0.3842
2439.00,
2442.00,0.3833
2445.00,
2448.00,0.3832
2451.00,
2454.00,0.3824
2457.00,
2460.00,0.3816
2463.00,
2466.00,0.3813
2469.00,
2472.00,0.3797
2475.00,
2478.00,0.3796
2481.00,
2484.00,0.3783
2487.00,
2490.00,0.3785
2493.00,
2496.00,0.3765
2499.00,
2502.00,0.3784
2505.00,
2508.00,0.3790
2511.00,
2514.00,0.3791
2517.00,
2520.00,0.3782
2523.00,
2526.00,0.3761
2529.00,
2532.00,0.3750
2535.00,
2538.00,0.3758
2541.00,
2544.00,0.3742
2547.00,
2550.00,0.3712
2553.00,
2556.00,0.3710
2559.00,
2562.00,0.3743
2565.00,
2568.00,0.3739
2571.00,
2574.00,0.3698
2577.00,
2580.00,0.3689
2583.00,
2586.00,0.3710
2589.00,
2592.00,0.3714
2595.00,
2598.00,0.3698
2601.00,
2604.00,0.3714
2607.00,
2610.00,0.3718
2613.00,
2616.00,0.3654
2619.00,
2622.00,0.3638
2625.00,
2628.00,0.3661
2631.00,
2634.00,0.3641
2637.00,
2640.00,0.3631
2643.00,
2646.00,0.3629
2649.00,
2652.00,0.3601
2655.00,
2658.00,0.3587
2661.00,
2664.00,0.3571
2667.00,
2670.00,0.3694
2673.00,
2676.00,0.3757
2679.00,
2682.00,0.3866
2685.00,
2688.00,0.4046
2691.00,
2694.00,0.4386
2697.00,
2700.00,0.4731
2703.00,
2706.00,0.4961
2709.00,
2712.00,0.5167
2715.00,
2718.00,0.5207
2721.00,
2724.00,0.5168
2727.00,
2730.00,0.5076
2733.00,
2736.00,0.4927
2739.00,
2742.00,0.4847
2745.00,
2748.00,0.4740
2751.00,
2754.00,0.4634
2757.00,
2760.00,0.4506
2763.00,
2766.00,0.4403
2769.00,
2772.00,0.4326
2775.00,
2778.00,0.4215
2781.00,
2784.00,0.4116
2787.00,
2790.00,0.4044
2793.00,
2796.00,0.3956
2799.00,
2802.00,0.3872
2805.00,
2808.00,0.3809
2811.00,
2814.00,0.3741
2817.00,
2820.00,0.3677
2823.00,
2826.00,0.3625
2829.00,
2832.00,0.3578
2835.00,
2838.00,0.3540
2841.00,
2844.00,0.3508
2847.00,
2850.00,0.3478
2853.00,
2856.00,0.3454
2859.00,
2862.00,0.3426
2865.00,
2868.00,0.3406
2871.00,
2874.00,0.3387
2877.00,
2880.00,0.3368
2883.00,
2886.00,0.3347
2889.00,
2892.00,0.3327
2895.00,
2898.00,0.3313
2901.00,
2904.00,0.3301
2907.00,
2910.00,0.3286
2913.00,
2916.00,0.3274
2919.00,
2922.00,0.3260
2925.00,
2928.00,0.3244
2931.00,
2934.00,0.3231
2937.00,
2940.00,0.3216
2943.00,
2946.00,0.3206
2949.00,
2952.00,0.3202
2955.00,
2958.00,0.3187
2961.00,
2964.00,0.3173
2967.00,
2970.00,0.3158
2973.00,
2976.00,0.3153
2979.00,
2982.00,0.3149
2985.00,
2988.00,0.3139
2991.00,
2994.00,0.3131
2997.00,
3000.00,0.3128
3003.00,
3006.00,0.3122
3009.00,
3012.00,0.3117
3015.00,
3018.00,0.3110
3021.00,
3024.00,0.3100
3027.00,
3030.00,0.3090
3033.00,
3036.00,0.3079
3039.00,
3042.00,0.3071
3045.00,
3048.00,0.3064
3051.00,
3054.00,0.3056
3057.00,
3060.00,0.3049
3063.00,
3066.00,0.3037
3069.00,
3072.00,0.3027
3075.00,
3078.00,0.3016
3081.00,
3084.00,0.3006
3087.00,
3090.00,0.2998
3093.00,
3096.00,0.2990
3099.00,
3102.00,0.2983
3105.00,
3108.00,0.2973
3111.00,
3114.00,0.2966
3117.00,
3120.00,0.2960
3123.00,
3126.00,0.2954
3129.00,
3132.00,0.2942
3135.00,
3138.00,0.2936
3141.00,
3144.00,0.2932
3147.00,
3150.00,0.2922
3153.00,
3156.00,0.2912
3159.00,
3162.00,0.2900
3165.00,
3168.00,0.2896
3171.00,
3174.00,0.2882
3177.00,
3180.00,0.2867
3183.00,
3186.00,0.2855
3189.00,
3192.00,0.2856
3195.00,
3198.00,0.2861
3201.00,
3204.00,0.2863
3207.00,
3210.00,0.2858
3213.00,
3216.00,0.2853
3219.00,
3222.00,0.2850
3225.00,
3228.00,0.2837
3231.00,
3234.00,0.2815
3237.00,
3240.00,0.2799
3243.00,
3246.00,0.2783
3249.00,
3252.00,0.2758
3255.00,
3258.00,0.2771
3261.00,
3264.00,0.2795
3267.00,
3270.00,0.2815
3273.00,
3276.00,0.2799
3279.00,
3282.00,0.2770
3285.00,
3288.00,0.2763
3291.00,
3294.00,0.2754
3297.00,
3300.00,0.2769