File: THF_UV_VIS_10mM.txt
"RawData - P3h-Doped F4tcnq_THF-10mmol"
"Wavelength nm.","Abs."
300.00,
303.00,
306.00,
309.00,
312.00,
315.00,
318.00,
321.00,
324.00,
327.00,
330.00,
333.00,
336.00,
339.00,
342.00,
345.00,
348.00,
351.00,
354.00,
357.00,
360.00,
363.00,
366.00,
369.00,
372.00,
375.00,
378.00,
381.00,
384.00,
387.00,
390.00,
393.00,
396.00,
399.00,
402.00,
405.00,
408.00,
411.00,
414.00,
417.00,
420.00,
423.00,
426.00,
429.00,
432.00,
435.00,
438.00,
441.00,
444.00,
447.00,
450.00,
453.00,
456.00,
459.00,
462.00,
465.00,
468.00,
471.00,
474.00,
477.00,
480.00,
483.00,
486.00,
489.00,
492.00,
495.00,
498.00,
501.00,
504.00,
507.00,
510.00,
513.00,
516.00,
519.00,
522.00,
525.00,
528.00,
531.00,
534.00,
537.00,
540.00,
543.00,
546.00,
549.00,
552.00,
555.00,
558.00,
561.00,
564.00,
567.00,
570.00,
573.00,
576.00,
579.00,
582.00,
585.00,
588.00,
591.00,
594.00,
597.00,
600.00,
603.00,
606.00,
609.00,
612.00,
615.00,
618.00,
621.00,
624.00,
627.00,
630.00,
633.00,
636.00,
639.00,
642.00,
645.00,
648.00,
651.00,
654.00,
657.00,
660.00,
663.00,
666.00,
669.00,
672.00,
675.00,
678.00,
681.00,
684.00,
687.00,
690.00,
693.00,
696.00,
699.00,
702.00,
705.00,
708.00,
711.00,
714.00,
717.00,
720.00,
723.00,
726.00,
729.00,
732.00,
735.00,
738.00,
741.00,
744.00,
747.00,
750.00,
753.00,
756.00,
759.00,
762.00,
765.00,
768.00,
771.00,
774.00,
777.00,
780.00,
783.00,
786.00,
789.00,
792.00,
795.00,
798.00,
801.00,
804.00,
807.00,
810.00,
813.00,
816.00,
819.00,
822.00,
825.00,
828.00,
831.00,
834.00,
837.00,
840.00,
843.00,
846.00,
849.00,
852.00,
855.00,
858.00,
861.00,
864.00,
867.00,
870.00,
873.00,
876.00,
879.00,
882.00,
885.00,
888.00,
891.00,
894.00,
897.00,
900.00,
903.00,
906.00,
909.00,
912.00,
915.00,
918.00,
921.00,
924.00,
927.00,
930.00,
933.00,
936.00,
939.00,
942.00,
945.00,
948.00,
951.00,
954.00,
957.00,
960.00,
963.00,
966.00,
969.00,
972.00,
975.00,
978.00,
981.00,
984.00,
987.00,
990.00,
993.00,
996.00,
999.00,
1002.00,0.1486
1005.00,
1008.00,0.1418
1011.00,
1014.00,0.1351
1017.00,
1020.00,0.1291
1023.00,
1026.00,0.1233
1029.00,
1032.00,0.1178
1035.00,
1038.00,0.1127
1041.00,
1044.00,0.1080
1047.00,
1050.00,0.1039
1053.00,
1056.00,0.0999
1059.00,
1062.00,0.0964
1065.00,
1068.00,0.0933
1071.00,
1074.00,0.0906
1077.00,
1080.00,0.0881
1083.00,
1086.00,0.0863
1089.00,
1092.00,0.0844
1095.00,
1098.00,0.0828
1101.00,
1104.00,0.0815
1107.00,
1110.00,0.0804
1113.00,
1116.00,0.0798
1119.00,
1122.00,0.0788
1125.00,
1128.00,0.0781
1131.00,
1134.00,0.0775
1137.00,
1140.00,0.0771
1143.00,
1146.00,0.0770
1149.00,
1152.00,0.0771
1155.00,
1158.00,0.0771
1161.00,
1164.00,0.0772
1167.00,
1170.00,0.0774
1173.00,
1176.00,0.0777
1179.00,
1182.00,0.0778
1185.00,
1188.00,0.0784
1191.00,
1194.00,0.0791
1197.00,
1200.00,0.0798
1203.00,
1206.00,0.0805
1209.00,
1212.00,0.0810
1215.00,
1218.00,0.0821
1221.00,
1224.00,0.0829
1227.00,
1230.00,0.0838
1233.00,
1236.00,0.0848
1239.00,
1242.00,0.0856
1245.00,
1248.00,0.0871
1251.00,
1254.00,0.0883
1257.00,
1260.00,0.0895
1263.00,
1266.00,0.0908
1269.00,
1272.00,0.0926
1275.00,
1278.00,0.0936
1281.00,
1284.00,0.0949
1287.00,
1290.00,0.0968
1293.00,
1296.00,0.0987
1299.00,
1302.00,0.1001
1305.00,
1308.00,0.1018
1311.00,
1314.00,0.1035
1317.00,
1320.00,0.1062
1323.00,
1326.00,0.1085
1329.00,
1332.00,0.1110
1335.00,
1338.00,0.1134
1341.00,
1344.00,0.1156
1347.00,
1350.00,0.1173
1353.00,
1356.00,0.1202
1359.00,
1362.00,0.1240
1365.00,
1368.00,0.1264
1371.00,
1374.00,0.1289
1377.00,
1380.00,0.1315
1383.00,
1386.00,0.1347
1389.00,
1392.00,0.1383
1395.00,
1398.00,0.1407
1401.00,
1404.00,0.1437
1407.00,
1410.00,0.1468
1413.00,
1416.00,0.1505
1419.00,
1422.00,0.1541
1425.00,
1428.00,0.1579
1431.00,
1434.00,0.1617
1437.00,
1440.00,0.1654
1443.00,
1446.00,0.1695
1449.00,
1452.00,0.1740
1455.00,
1458.00,0.1778
1461.00,
1464.00,0.1820
1467.00,
1470.00,0.1864
1473.00,
1476.00,0.1904
1479.00,
1482.00,0.1952
1485.00,
1488.00,0.1995
1491.00,
1494.00,0.2040
1497.00,
1500.00,0.2084
1503.00,
1506.00,0.2130
1509.00,
1512.00,0.2179
1515.00,
1518.00,0.2226
1521.00,
1524.00,0.2275
1527.00,
1530.00,0.2323
1533.00,
1536.00,0.2372
1539.00,
1542.00,0.2425
1545.00,
1548.00,0.2474
1551.00,
1554.00,0.2518
1557.00,
1560.00,0.2569
1563.00,
1566.00,0.2615
1569.00,
1572.00,0.2667
1575.00,
1578.00,0.2715
1581.00,
1584.00,0.2763
1587.00,
1590.00,0.2815
1593.00,
1596.00,0.2861
1599.00,
1602.00,0.2910
1605.00,
1608.00,0.2959
1611.00,
1614.00,0.3005
1617.00,
1620.00,0.3054
1623.00,
1626.00,0.3102
1629.00,
1632.00,0.3145
1635.00,
1638.00,0.3189
1641.00,
1644.00,0.3236
1647.00,
1650.00,0.3295
1653.00,
1656.00,0.3375
1659.00,
1662.00,0.3415
1665.00,
1668.00,0.3454
1671.00,
1674.00,0.3491
1677.00,
1680.00,0.3528
1683.00,
1686.00,0.3562
1689.00,
1692.00,0.3600
1695.00,
1698.00,0.3632
1701.00,
1704.00,0.3666
1707.00,
1710.00,0.3700
1713.00,
1716.00,0.3732
1719.00,
1722.00,0.3764
1725.00,
1728.00,0.3796
1731.00,
1734.00,0.3826
1737.00,
1740.00,0.3856
1743.00,
1746.00,0.3888
1749.00,
1752.00,0.3915
1755.00,
1758.00,0.3945
1761.00,
1764.00,0.3974
1767.00,
1770.00,0.4002
1773.00,
1776.00,0.4028
1779.00,
1782.00,0.4055
1785.00,
1788.00,0.4082
1791.00,
1794.00,0.4104
1797.00,
1800.00,0.4125
1803.00,
1806.00,0.4158
1809.00,
1812.00,0.4180
1815.00,
1818.00,0.4205
1821.00,
1824.00,0.4243
1827.00,
1830.00,0.4256
1833.00,
1836.00,0.4257
1839.00,
1842.00,0.4294
1845.00,
1848.00,0.4322
1851.00,
1854.00,0.4337
1857.00,
1860.00,0.4346
1863.00,
1866.00,0.4352
1869.00,
1872.00,0.4382
1875.00,
1878.00,0.4406
1881.00,
1884.00,0.4416
1887.00,
1890.00,0.4425
1893.00,
1896.00,0.4434
1899.00,
1902.00,0.4451
1905.00,
1908.00,0.4463
1911.00,
1914.00,0.4459
1917.00,
1920.00,0.4459
1923.00,
1926.00,0.4470
1929.00,
1932.00,0.4493
1935.00,
1938.00,0.4502
1941.00,
1944.00,0.4497
1947.00,
1950.00,0.4501
1953.00,
1956.00,0.4505
1959.00,
1962.00,0.4508
1965.00,
1968.00,0.4512
1971.00,
1974.00,0.4515
1977.00,
1980.00,0.4520
1983.00,
1986.00,0.4524
1989.00,
1992.00,0.4523
1995.00,
1998.00,0.4527
2001.00,
2004.00,0.4529
2007.00,
2010.00,0.4528
2013.00,
2016.00,0.4534
2019.00,
2022.00,0.4533
2025.00,
2028.00,0.4533
2031.00,
2034.00,0.4542
2037.00,
2040.00,0.4539
2043.00,
2046.00,0.4533
2049.00,
2052.00,0.4546
2055.00,
2058.00,0.4557
2061.00,
2064.00,0.4558
2067.00,
2070.00,0.4558
2073.00,
2076.00,0.4563
2079.00,
2082.00,0.4566
2085.00,
2088.00,0.4571
2091.00,
2094.00,0.4566
2097.00,
2100.00,0.4561
2103.00,
2106.00,0.4560
2109.00,
2112.00,0.4559
2115.00,
2118.00,0.4551
2121.00,
2124.00,0.4545
2127.00,
2130.00,0.4538
2133.00,
2136.00,0.4537
2139.00,
2142.00,0.4532
2145.00,
2148.00,0.4522
2151.00,
2154.00,0.4514
2157.00,
2160.00,0.4507
2163.00,
2166.00,0.4503
2169.00,
2172.00,0.4498
2175.00,
2178.00,0.4495
2181.00,
2184.00,0.4485
2187.00,
2190.00,0.4483
2193.00,
2196.00,0.4481
2199.00,
2202.00,0.4482
2205.00,
2208.00,0.4474
2211.00,
2214.00,0.4464
2217.00,
2220.00,0.4459
2223.00,
2226.00,0.4452
2229.00,
2232.00,0.4446
2235.00,
2238.00,0.4434
2241.00,
2244.00,0.4422
2247.00,
2250.00,0.4422
2253.00,
2256.00,0.4415
2259.00,
2262.00,0.4418
2265.00,
2268.00,0.4412
2271.00,
2274.00,0.4403
2277.00,
2280.00,0.4395
2283.00,
2286.00,0.4388
2289.00,
2292.00,0.4379
2295.00,
2298.00,0.4367
2301.00,
2304.00,0.4357
2307.00,
2310.00,0.4349
2313.00,
2316.00,0.4334
2319.00,
2322.00,0.4328
2325.00,
2328.00,0.4322
2331.00,
2334.00,0.4309
2337.00,
2340.00,0.4298
2343.00,
2346.00,0.4290
2349.00,
2352.00,0.4283
2355.00,
2358.00,0.4273
2361.00,
2364.00,0.4270
2367.00,
2370.00,0.4253
2373.00,
2376.00,0.4241
2379.00,
2382.00,0.4235
2385.00,
2388.00,0.4221
2391.00,
2394.00,0.4215
2397.00,
2400.00,0.4207
2403.00,
2406.00,0.4201
2409.00,
2412.00,0.4188
2415.00,
2418.00,0.4183
2421.00,
2424.00,0.4172
2427.00,
2430.00,0.4164
2433.00,
2436.00,0.4156
2439.00,
2442.00,0.4152
2445.00,
2448.00,0.4137
2451.00,
2454.00,0.4137
2457.00,
2460.00,0.4127
2463.00,
2466.00,0.4116
2469.00,
2472.00,0.4105
2475.00,
2478.00,0.4102
2481.00,
2484.00,0.4095
2487.00,
2490.00,0.4089
2493.00,
2496.00,0.4071
2499.00,
2502.00,0.4086
2505.00,
2508.00,0.4082
2511.00,
2514.00,0.4074
2517.00,
2520.00,0.4062
2523.00,
2526.00,0.4066
2529.00,
2532.00,0.4058
2535.00,
2538.00,0.4041
2541.00,
2544.00,0.4028
2547.00,
2550.00,0.4042
2553.00,
2556.00,0.4033
2559.00,
2562.00,0.4013
2565.00,
2568.00,0.3991
2571.00,
2574.00,0.3943
2577.00,
2580.00,0.3927
2583.00,
2586.00,0.3974
2589.00,
2592.00,0.3971
2595.00,
2598.00,0.3927
2601.00,
2604.00,0.3964
2607.00,
2610.00,0.3975
2613.00,
2616.00,0.3907
2619.00,
2622.00,0.3891
2625.00,
2628.00,0.3896
2631.00,
2634.00,0.3871
2637.00,
2640.00,0.3879
2643.00,
2646.00,0.3861
2649.00,
2652.00,0.3838
2655.00,
2658.00,0.3815
2661.00,
2664.00,0.3805
2667.00,
2670.00,0.3867
2673.00,
2676.00,0.3906
2679.00,
2682.00,0.3940
2685.00,
2688.00,0.3996
2691.00,
2694.00,0.4117
2697.00,
2700.00,0.4254
2703.00,
2706.00,0.4328
2709.00,
2712.00,0.4347
2715.00,
2718.00,0.4307
2721.00,
2724.00,0.4290
2727.00,
2730.00,0.4248
2733.00,
2736.00,0.4129
2739.00,
2742.00,0.4064
2745.00,
2748.00,0.4029
2751.00,
2754.00,0.3993
2757.00,
2760.00,0.3939
2763.00,
2766.00,0.3911
2769.00,
2772.00,0.3869
2775.00,
2778.00,0.3831
2781.00,
2784.00,0.3780
2787.00,
2790.00,0.3754
2793.00,
2796.00,0.3729
2799.00,
2802.00,0.3707
2805.00,
2808.00,0.3674
2811.00,
2814.00,0.3655
2817.00,
2820.00,0.3647
2823.00,
2826.00,0.3636
2829.00,
2832.00,0.3623
2835.00,
2838.00,0.3622
2841.00,
2844.00,0.3612
2847.00,
2850.00,0.3604
2853.00,
2856.00,0.3595
2859.00,
2862.00,0.3591
2865.00,
2868.00,0.3576
2871.00,
2874.00,0.3561
2877.00,
2880.00,0.3549
2883.00,
2886.00,0.3539
2889.00,
2892.00,0.3528
2895.00,
2898.00,0.3519
2901.00,
2904.00,0.3512
2907.00,
2910.00,0.3502
2913.00,
2916.00,0.3494
2919.00,
2922.00,0.3482
2925.00,
2928.00,0.3474
2931.00,
2934.00,0.3464
2937.00,
2940.00,0.3452
2943.00,
2946.00,0.3440
2949.00,
2952.00,0.3434
2955.00,
2958.00,0.3423
2961.00,
2964.00,0.3409
2967.00,
2970.00,0.3403
2973.00,
2976.00,0.3397
2979.00,
2982.00,0.3388
2985.00,
2988.00,0.3375
2991.00,
2994.00,0.3368
2997.00,
3000.00,0.3381
3003.00,
3006.00,0.3398
3009.00,
3012.00,0.3406
3015.00,
3018.00,0.3396
3021.00,
3024.00,0.3383
3027.00,
3030.00,0.3371
3033.00,
3036.00,0.3365
3039.00,
3042.00,0.3359
3045.00,
3048.00,0.3352
3051.00,
3054.00,0.3343
3057.00,
3060.00,0.3331
3063.00,
3066.00,0.3315
3069.00,
3072.00,0.3305
3075.00,
3078.00,0.3294
3081.00,
3084.00,0.3291
3087.00,
3090.00,0.3283
3093.00,
3096.00,0.3279
3099.00,
3102.00,0.3273
3105.00,
3108.00,0.3266
3111.00,
3114.00,0.3257
3117.00,
3120.00,0.3249
3123.00,
3126.00,0.3241
3129.00,
3132.00,0.3231
3135.00,
3138.00,0.3223
3141.00,
3144.00,0.3218
3147.00,
3150.00,0.3211
3153.00,
3156.00,0.3201
3159.00,
3162.00,0.3190
3165.00,
3168.00,0.3188
3171.00,
3174.00,0.3178
3177.00,
3180.00,0.3169
3183.00,
3186.00,0.3152
3189.00,
3192.00,0.3143
3195.00,
3198.00,0.3128
3201.00,
3204.00,0.3122
3207.00,
3210.00,0.3116
3213.00,
3216.00,0.3123
3219.00,
3222.00,0.3113
3225.00,
3228.00,0.3114
3231.00,
3234.00,0.3095
3237.00,
3240.00,0.3091
3243.00,
3246.00,0.3078
3249.00,
3252.00,0.3068
3255.00,
3258.00,0.3069
3261.00,
3264.00,0.3057
3267.00,
3270.00,0.3067
3273.00,
3276.00,0.3057
3279.00,
3282.00,0.3074
3285.00,
3288.00,0.3073
3291.00,
3294.00,0.3071
3297.00,
3300.00,0.3055