File: THF_UV_VIS_30mM.txt
"20-30mM-1_THF30mM - RawData"
"Wavelength nm."	"Abs."
300.00	0.3006
303.00	0.3029
306.00	0.3038
309.00	0.3078
312.00	0.3117
315.00	0.3172
318.00	0.3245
321.00	0.3322
324.00	0.3394
327.00	0.3471
330.00	0.3554
333.00	0.3630
336.00	0.3729
339.00	0.3837
342.00	0.3943
345.00	0.4056
348.00	0.4159
351.00	0.4259
354.00	0.4369
357.00	0.4484
360.00	0.4608
363.00	0.4734
366.00	0.4891
369.00	0.5070
372.00	0.5261
375.00	0.5450
378.00	0.5672
381.00	0.5934
384.00	0.6212
387.00	0.6503
390.00	0.6769
393.00	0.7004
396.00	0.7208
399.00	0.7399
402.00	0.7608
405.00	0.7832
408.00	0.8040
411.00	0.8209
414.00	0.8308
417.00	0.8326
420.00	0.8269
423.00	0.8152
426.00	0.7987
429.00	0.7822
432.00	0.7685
435.00	0.7601
438.00	0.7550
441.00	0.7524
444.00	0.7522
447.00	0.7549
450.00	0.7606
453.00	0.7681
456.00	0.7771
459.00	0.7875
462.00	0.7988
465.00	0.8093
468.00	0.8187
471.00	0.8273
474.00	0.8361
477.00	0.8445
480.00	0.8521
483.00	0.8596
486.00	0.8659
489.00	0.8704
492.00	0.8748
495.00	0.8785
498.00	0.8811
501.00	0.8825
504.00	0.8835
507.00	0.8836
510.00	0.8816
513.00	0.8787
516.00	0.8745
519.00	0.8692
522.00	0.8635
525.00	0.8565
528.00	0.8501
531.00	0.8436
534.00	0.8348
537.00	0.8259
540.00	0.8180
543.00	0.8089
546.00	0.7995
549.00	0.7899
552.00	0.7805
555.00	0.7708
558.00	0.7600
561.00	0.7489
564.00	0.7401
567.00	0.7300
570.00	0.7165
573.00	0.7055
576.00	0.6932
579.00	0.6807
582.00	0.6682
585.00	0.6551
588.00	0.6416
591.00	0.6283
594.00	0.6148
597.00	0.6011
600.00	0.5880
603.00	0.5763
606.00	0.5640
609.00	0.5527
612.00	0.5428
615.00	0.5328
618.00	0.5256
621.00	0.5177
624.00	0.5123
627.00	0.5069
630.00	0.5033
633.00	0.4994
636.00	0.4959
639.00	0.4956
642.00	0.4939
645.00	0.4930
648.00	0.4928
651.00	0.4943
654.00	0.4957
657.00	0.4972
660.00	0.4997
663.00	0.5017
666.00	0.5039
669.00	0.5062
672.00	0.5098
675.00	0.5124
678.00	0.5156
681.00	0.5192
684.00	0.5230
687.00	0.5244
690.00	0.5254
693.00	0.5269
696.00	0.5282
699.00	0.5282
702.00	0.5294
705.00	0.5306
708.00	0.5309
711.00	0.5314
714.00	0.5330
717.00	0.5331
720.00	0.5340
723.00	0.5363
726.00	0.5375
729.00	0.5407
732.00	0.5454
735.00	0.5506
738.00	0.5553
741.00	0.5623
744.00	0.5678
747.00	0.5739
750.00	0.5793
753.00	0.5832
756.00	0.5865
759.00	0.5895
762.00	0.5926
765.00	0.5948
768.00	0.5942
771.00	0.5900
774.00	0.5833
777.00	0.5751
780.00	0.5666
783.00	0.5582
786.00	0.5520
789.00	0.5457
792.00	0.5385
795.00	0.5302
798.00	0.5210
801.00	0.5134
804.00	0.5074
807.00	0.5012
810.00	0.4963
813.00	0.4920
816.00	0.4898
819.00	0.4893
822.00	0.4895
825.00	0.4904
828.00	0.4922
831.00	0.4963
834.00	0.5006
837.00	0.5057
840.00	0.5122
843.00	0.5199
846.00	0.5279
849.00	0.5345
852.00	0.5390
855.00	0.5409
858.00	0.5397
861.00	0.5378
864.00	0.5357
867.00	0.5327
870.00	0.5292
873.00	0.5238
876.00	0.5165
879.00	0.5059
882.00	0.4929
885.00	0.4787
888.00	0.4638
891.00	0.4493
894.00	0.4354
897.00	0.4225
900.00	0.4102
903.00	0.3976
906.00	0.3865
909.00	0.3761
912.00	0.3658
915.00	0.3560
918.00	0.3466
921.00	0.3376
924.00	0.3283
927.00	0.3200
930.00	0.3121
933.00	0.3043
936.00	0.2975
939.00	0.2905
942.00	0.2832
945.00	0.2766
948.00	0.2702
951.00	0.2641
954.00	0.2580
957.00	0.2519
960.00	0.2462
963.00	0.2406
966.00	0.2352
969.00	0.2300
972.00	0.2249
975.00	0.2196
978.00	0.2148
981.00	0.2101
984.00	0.2056
987.00	0.2012
990.00	0.1968
993.00	0.1920
996.00	0.1882
999.00	0.1841
1002.00	0.1800
1005.00	0.1759
1008.00	0.1722
1011.00	0.1688
1014.00	0.1652
1017.00	0.1619
1020.00	0.1590
1023.00	0.1558
1026.00	0.1525
1029.00	0.1494
1032.00	0.1473
1035.00	0.1447
1038.00	0.1410
1041.00	0.1389
1044.00	0.1374
1047.00	0.1349
1050.00	0.1320
1053.00	0.1300
1056.00	0.1286
1059.00	0.1273
1062.00	0.1252
1065.00	0.1234
1068.00	0.1217
1071.00	0.1199
1074.00	0.1184
1077.00	0.1172
1080.00	0.1161
1083.00	0.1145
1086.00	0.1137
1089.00	0.1126
1092.00	0.1117
1095.00	0.1107
1098.00	0.1101
1101.00	0.1097
1104.00	0.1085
1107.00	0.1078
1110.00	0.1073
1113.00	0.1070
1116.00	0.1063
1119.00	0.1058
1122.00	0.1057
1125.00	0.1052
1128.00	0.1050
1131.00	0.1047
1134.00	0.1046
1137.00	0.1044
1140.00	0.1041
1143.00	0.1039
1146.00	0.1045
1149.00	0.1044
1152.00	0.1041
1155.00	0.1041
1158.00	0.1042
1161.00	0.1043
1164.00	0.1043
1167.00	0.1044
1170.00	0.1048
1173.00	0.1052
1176.00	0.1056
1179.00	0.1054
1182.00	0.1056
1185.00	0.1060
1188.00	0.1063
1191.00	0.1063
1194.00	0.1070
1197.00	0.1075
1200.00	0.1074
1203.00	0.1085
1206.00	0.1094
1209.00	0.1094
1212.00	0.1097
1215.00	0.1100
1218.00	0.1107
1221.00	0.1104
1224.00	0.1109
1227.00	0.1123
1230.00	0.1129
1233.00	0.1136
1236.00	0.1141
1239.00	0.1147
1242.00	0.1155
1245.00	0.1163
1248.00	0.1170
1251.00	0.1174
1254.00	0.1179
1257.00	0.1189
1260.00	0.1199
1263.00	0.1209
1266.00	0.1216
1269.00	0.1221
1272.00	0.1234
1275.00	0.1240
1278.00	0.1248
1281.00	0.1259
1284.00	0.1268
1287.00	0.1273
1290.00	0.1282
1293.00	0.1295
1296.00	0.1306
1299.00	0.1318
1302.00	0.1327
1305.00	0.1338
1308.00	0.1346
1311.00	0.1358
1314.00	0.1373
1317.00	0.1384
1320.00	0.1391
1323.00	0.1403
1326.00	0.1414
1329.00	0.1428
1332.00	0.1439
1335.00	0.1450
1338.00	0.1464
1341.00	0.1479
1344.00	0.1491
1347.00	0.1507
1350.00	0.1522
1353.00	0.1540
1356.00	0.1554
1359.00	0.1567
1362.00	0.1590
1365.00	0.1610
1368.00	0.1626
1371.00	0.1641
1374.00	0.1657
1377.00	0.1676
1380.00	0.1694
1383.00	0.1714
1386.00	0.1736
1389.00	0.1747
1392.00	0.1764
1395.00	0.1787
1398.00	0.1810
1401.00	0.1829
1404.00	0.1844
1407.00	0.1864
1410.00	0.1890
1413.00	0.1906
1416.00	0.1928
1419.00	0.1950
1422.00	0.1963
1425.00	0.1988
1428.00	0.2012
1431.00	0.2032
1434.00	0.2051
1437.00	0.2070
1440.00	0.2098
1443.00	0.2114
1446.00	0.2136
1449.00	0.2153
1452.00	0.2164
1455.00	0.2193
1458.00	0.2225
1461.00	0.2247
1464.00	0.2267
1467.00	0.2288
1470.00	0.2311
1473.00	0.2343
1476.00	0.2364
1479.00	0.2381
1482.00	0.2404
1485.00	0.2436
1488.00	0.2453
1491.00	0.2477
1494.00	0.2503
1497.00	0.2530
1500.00	0.2547
1503.00	0.2575
1506.00	0.2599
1509.00	0.2631
1512.00	0.2652
1515.00	0.2678
1518.00	0.2703
1521.00	0.2725
1524.00	0.2748
1527.00	0.2774
1530.00	0.2798
1533.00	0.2825
1536.00	0.2851
1539.00	0.2876
1542.00	0.2899
1545.00	0.2925
1548.00	0.2954
1551.00	0.2979
1554.00	0.3005
1557.00	0.3028
1560.00	0.3053
1563.00	0.3080
1566.00	0.3105
1569.00	0.3130
1572.00	0.3158
1575.00	0.3183
1578.00	0.3213
1581.00	0.3236
1584.00	0.3260
1587.00	0.3289
1590.00	0.3315
1593.00	0.3337
1596.00	0.3366
1599.00	0.3392
1602.00	0.3417
1605.00	0.3439
1608.00	0.3459
1611.00	0.3484
1614.00	0.3509
1617.00	0.3534
1620.00	0.3560
1623.00	0.3578
1626.00	0.3606
1629.00	0.3628
1632.00	0.3641
1635.00	0.3659
1638.00	0.3678
1641.00	0.3696
1644.00	0.3711
1647.00	0.3715
1650.00	0.3719
1653.00	0.3721
1656.00	0.3724
1659.00	0.3734
1662.00	0.3753
1665.00	0.3770
1668.00	0.3786
1671.00	0.3805
1674.00	0.3829
1677.00	0.3848
1680.00	0.3861
1683.00	0.3881
1686.00	0.3897
1689.00	0.3917
1692.00	0.3934
1695.00	0.3949
1698.00	0.3969
1701.00	0.3989
1704.00	0.4002
1707.00	0.4018
1710.00	0.4041
1713.00	0.4065
1716.00	0.4083
1719.00	0.4090
1722.00	0.4102
1725.00	0.4121
1728.00	0.4142
1731.00	0.4159
1734.00	0.4170
1737.00	0.4186
1740.00	0.4204
1743.00	0.4225
1746.00	0.4236
1749.00	0.4248
1752.00	0.4264
1755.00	0.4283
1758.00	0.4293
1761.00	0.4302
1764.00	0.4322
1767.00	0.4338
1770.00	0.4353
1773.00	0.4364
1776.00	0.4374
1779.00	0.4390
1782.00	0.4406
1785.00	0.4426
1788.00	0.4433
1791.00	0.4444
1794.00	0.4457
1797.00	0.4467
1800.00	0.4483
1803.00	0.4497
1806.00	0.4509
1809.00	0.4524
1812.00	0.4536
1815.00	0.4541
1818.00	0.4547
1821.00	0.4556
1824.00	0.4572
1827.00	0.4586
1830.00	0.4591
1833.00	0.4598
1836.00	0.4609
1839.00	0.4621
1842.00	0.4627
1845.00	0.4633
1848.00	0.4632
1851.00	0.4641
1854.00	0.4659
1857.00	0.4669
1860.00	0.4682
1863.00	0.4686
1866.00	0.4696
1869.00	0.4703
1872.00	0.4710
1875.00	0.4721
1878.00	0.4721
1881.00	0.4725
1884.00	0.4730
1887.00	0.4731
1890.00	0.4740
1893.00	0.4746
1896.00	0.4752
1899.00	0.4767
1902.00	0.4787
1905.00	0.4801
1908.00	0.4797
1911.00	0.4798
1914.00	0.4797
1917.00	0.4800
1920.00	0.4802
1923.00	0.4811
1926.00	0.4823
1929.00	0.4824
1932.00	0.4831
1935.00	0.4832
1938.00	0.4835
1941.00	0.4840
1944.00	0.4838
1947.00	0.4850
1950.00	0.4851
1953.00	0.4846
1956.00	0.4857
1959.00	0.4866
1962.00	0.4870
1965.00	0.4873
1968.00	0.4876
1971.00	0.4883
1974.00	0.4878
1977.00	0.4889
1980.00	0.4892
1983.00	0.4883
1986.00	0.4892
1989.00	0.4896
1992.00	0.4900
1995.00	0.4899
1998.00	0.4905
2001.00	0.4910
2004.00	0.4906
2007.00	0.4909
2010.00	0.4909
2013.00	0.4911
2016.00	0.4912
2019.00	0.4910
2022.00	0.4916
2025.00	0.4918
2028.00	0.4912
2031.00	0.4918
2034.00	0.4929
2037.00	0.4925
2040.00	0.4916
2043.00	0.4915
2046.00	0.4928
2049.00	0.4931
2052.00	0.4937
2055.00	0.4950
2058.00	0.4947
2061.00	0.4951
2064.00	0.4957
2067.00	0.4959
2070.00	0.4956
2073.00	0.4947
2076.00	0.4942
2079.00	0.4946
2082.00	0.4949
2085.00	0.4952
2088.00	0.4956
2091.00	0.4945
2094.00	0.4955
2097.00	0.4948
2100.00	0.4952
2103.00	0.4951
2106.00	0.4944
2109.00	0.4951
2112.00	0.4950
2115.00	0.4942
2118.00	0.4942
2121.00	0.4944
2124.00	0.4947
2127.00	0.4939
2130.00	0.4942
2133.00	0.4943
2136.00	0.4946
2139.00	0.4946
2142.00	0.4946
2145.00	0.4945
2148.00	0.4934
2151.00	0.4928
2154.00	0.4924
2157.00	0.4929
2160.00	0.4929
2163.00	0.4917
2166.00	0.4922
2169.00	0.4923
2172.00	0.4923
2175.00	0.4928
2178.00	0.4923
2181.00	0.4920
2184.00	0.4920
2187.00	0.4920
2190.00	0.4907
2193.00	0.4905
2196.00	0.4910
2199.00	0.4914
2202.00	0.4911
2205.00	0.4910
2208.00	0.4900
2211.00	0.4893
2214.00	0.4893
2217.00	0.4901
2220.00	0.4899
2223.00	0.4890
2226.00	0.4887
2229.00	0.4873
2232.00	0.4870
2235.00	0.4873
2238.00	0.4867
2241.00	0.4857
2244.00	0.4861
2247.00	0.4859
2250.00	0.4853
2253.00	0.4851
2256.00	0.4854
2259.00	0.4853
2262.00	0.4849
2265.00	0.4850
2268.00	0.4844
2271.00	0.4839
2274.00	0.4826
2277.00	0.4818
2280.00	0.4822
2283.00	0.4820
2286.00	0.4820
2289.00	0.4817
2292.00	0.4819
2295.00	0.4814
2298.00	0.4807
2301.00	0.4805
2304.00	0.4800
2307.00	0.4802
2310.00	0.4795
2313.00	0.4792
2316.00	0.4791
2319.00	0.4784
2322.00	0.4778
2325.00	0.4783
2328.00	0.4778
2331.00	0.4767
2334.00	0.4768
2337.00	0.4762
2340.00	0.4747
2343.00	0.4755
2346.00	0.4751
2349.00	0.4745
2352.00	0.4743
2355.00	0.4744
2358.00	0.4739
2361.00	0.4738
2364.00	0.4732
2367.00	0.4731
2370.00	0.4724
2373.00	0.4723
2376.00	0.4719
2379.00	0.4714
2382.00	0.4700
2385.00	0.4691
2388.00	0.4692
2391.00	0.4697
2394.00	0.4687
2397.00	0.4682
2400.00	0.4674
2403.00	0.4674
2406.00	0.4675
2409.00	0.4678
2412.00	0.4669
2415.00	0.4651
2418.00	0.4654
2421.00	0.4654
2424.00	0.4650
2427.00	0.4650
2430.00	0.4650
2433.00	0.4637
2436.00	0.4644
2439.00	0.4641
2442.00	0.4636
2445.00	0.4618
2448.00	0.4625
2451.00	0.4621
2454.00	0.4619
2457.00	0.4615
2460.00	0.4607
2463.00	0.4615
2466.00	0.4603
2469.00	0.4590
2472.00	0.4590
2475.00	0.4578
2478.00	0.4582
2481.00	0.4576
2484.00	0.4568
2487.00	0.4564
2490.00	0.4561
2493.00	0.4563
2496.00	0.4556
2499.00	0.4540
2502.00	0.4518
2505.00	0.4505
2508.00	0.4497
2511.00	0.4490
2514.00	0.4484
2517.00	0.4483
2520.00	0.4480
2523.00	0.4479
2526.00	0.4475
2529.00	0.4477
2532.00	0.4477
2535.00	0.4470
2538.00	0.4454
2541.00	0.4453
2544.00	0.4456
2547.00	0.4455
2550.00	0.4451
2553.00	0.4442
2556.00	0.4433
2559.00	0.4420
2562.00	0.4422
2565.00	0.4422
2568.00	0.4425
2571.00	0.4427
2574.00	0.4410
2577.00	0.4403
2580.00	0.4396
2583.00	0.4381
2586.00	0.4376
2589.00	0.4392
2592.00	0.4396
2595.00	0.4377
2598.00	0.4352
2601.00	0.4356
2604.00	0.4347
2607.00	0.4357
2610.00	0.4374
2613.00	0.4377
2616.00	0.4374
2619.00	0.4352
2622.00	0.4328
2625.00	0.4324
2628.00	0.4334
2631.00	0.4338
2634.00	0.4333
2637.00	0.4330
2640.00	0.4320
2643.00	0.4314
2646.00	0.4301
2649.00	0.4299
2652.00	0.4284
2655.00	0.4267
2658.00	0.4243
2661.00	0.4243
2664.00	0.4252
2667.00	0.4290
2670.00	0.4319
2673.00	0.4349
2676.00	0.4380
2679.00	0.4353
2682.00	0.4372
2685.00	0.4401
2688.00	0.4436
2691.00	0.4489
2694.00	0.4575
2697.00	0.4698
2700.00	0.4869
2703.00	0.4958
2706.00	0.5094
2709.00	0.5164
2712.00	0.5263
2715.00	0.5409
2718.00	0.5495
2721.00	0.5546
2724.00	0.5546
2727.00	0.5487
2730.00	0.5510
2733.00	0.5470
2736.00	0.5382
2739.00	0.5257
2742.00	0.5174
2745.00	0.5089
2748.00	0.5002
2751.00	0.4913
2754.00	0.4768
2757.00	0.4678
2760.00	0.4606
2763.00	0.4570
2766.00	0.4534
2769.00	0.4436
2772.00	0.4376
2775.00	0.4328
2778.00	0.4287
2781.00	0.4242
2784.00	0.4210
2787.00	0.4192
2790.00	0.4158
2793.00	0.4149
2796.00	0.4139
2799.00	0.4111
2802.00	0.4093
2805.00	0.4075
2808.00	0.4055
2811.00	0.4042
2814.00	0.4036
2817.00	0.4023
2820.00	0.4015
2823.00	0.4008
2826.00	0.3999
2829.00	0.4000
2832.00	0.3995
2835.00	0.3989
2838.00	0.3984
2841.00	0.3981
2844.00	0.3977
2847.00	0.3977
2850.00	0.3974
2853.00	0.3968
2856.00	0.3962
2859.00	0.3956
2862.00	0.3959
2865.00	0.3953
2868.00	0.3955
2871.00	0.3950
2874.00	0.3945
2877.00	0.3941
2880.00	0.3938
2883.00	0.3934
2886.00	0.3927
2889.00	0.3920
2892.00	0.3912
2895.00	0.3914
2898.00	0.3910
2901.00	0.3905
2904.00	0.3904
2907.00	0.3896
2910.00	0.3891
2913.00	0.3890
2916.00	0.3879
2919.00	0.3877
2922.00	0.3875
2925.00	0.3870
2928.00	0.3873
2931.00	0.3864
2934.00	0.3866
2937.00	0.3864
2940.00	0.3859
2943.00	0.3857
2946.00	0.3847
2949.00	0.3835
2952.00	0.3834
2955.00	0.3835
2958.00	0.3831
2961.00	0.3832
2964.00	0.3832
2967.00	0.3826
2970.00	0.3826
2973.00	0.3823
2976.00	0.3819
2979.00	0.3807
2982.00	0.3808
2985.00	0.3802
2988.00	0.3802
2991.00	0.3806
2994.00	0.3797
2997.00	0.3806
3000.00	0.3819
3003.00	0.3820
3006.00	0.3823
3009.00	0.3826
3012.00	0.3821
3015.00	0.3815
3018.00	0.3812
3021.00	0.3808
3024.00	0.3806
3027.00	0.3806
3030.00	0.3804
3033.00	0.3803
3036.00	0.3796
3039.00	0.3794
3042.00	0.3784
3045.00	0.3779
3048.00	0.3775
3051.00	0.3768
3054.00	0.3766
3057.00	0.3761
3060.00	0.3761
3063.00	0.3760
3066.00	0.3760
3069.00	0.3755
3072.00	0.3752
3075.00	0.3751
3078.00	0.3749
3081.00	0.3743
3084.00	0.3737
3087.00	0.3733
3090.00	0.3726
3093.00	0.3720
3096.00	0.3713
3099.00	0.3708
3102.00	0.3705
3105.00	0.3704
3108.00	0.3700
3111.00	0.3698
3114.00	0.3700
3117.00	0.3696
3120.00	0.3684
3123.00	0.3677
3126.00	0.3671
3129.00	0.3663
3132.00	0.3658
3135.00	0.3658
3138.00	0.3657
3141.00	0.3655
3144.00	0.3653
3147.00	0.3648
3150.00	0.3644
3153.00	0.3638
3156.00	0.3629
3159.00	0.3625
3162.00	0.3607
3165.00	0.3609
3168.00	0.3608
3171.00	0.3606
3174.00	0.3612
3177.00	0.3606
3180.00	0.3597
3183.00	0.3597
3186.00	0.3591
3189.00	0.3591
3192.00	0.3596
3195.00	0.3599
3198.00	0.3597
3201.00	0.3585
3204.00	0.3561
3207.00	0.3544
3210.00	0.3530
3213.00	0.3526
3216.00	0.3502
3219.00	0.3507
3222.00	0.3514
3225.00	0.3523
3228.00	0.3523
3231.00	0.3525
3234.00	0.3543
3237.00	0.3539
3240.00	0.3530
3243.00	0.3507
3246.00	0.3497
3249.00	0.3492
3252.00	0.3500
3255.00	0.3484
3258.00	0.3513
3261.00	0.3493
3264.00	0.3454
3267.00	0.3452
3270.00	0.3395
3273.00	0.3370
3276.00	0.3366
3279.00	0.3415
3282.00	0.3419
3285.00	0.3429
3288.00	0.3469
3291.00	0.3472
3294.00	0.3542
3297.00	0.3585
3300.00	0.3657