File: THF_UV_VIS_20mM.txt
"20-30mM-1_THF20mM - RawData"
"Wavelength nm."	"Abs."
300.00	0.2890
303.00	0.2904
306.00	0.2913
309.00	0.2952
312.00	0.2996
315.00	0.3067
318.00	0.3156
321.00	0.3234
324.00	0.3322
327.00	0.3416
330.00	0.3516
333.00	0.3600
336.00	0.3709
339.00	0.3827
342.00	0.3935
345.00	0.4050
348.00	0.4155
351.00	0.4258
354.00	0.4365
357.00	0.4472
360.00	0.4583
363.00	0.4698
366.00	0.4845
369.00	0.5009
372.00	0.5184
375.00	0.5364
378.00	0.5569
381.00	0.5811
384.00	0.6083
387.00	0.6367
390.00	0.6624
393.00	0.6863
396.00	0.7082
399.00	0.7289
402.00	0.7509
405.00	0.7746
408.00	0.7977
411.00	0.8176
414.00	0.8316
417.00	0.8373
420.00	0.8354
423.00	0.8274
426.00	0.8148
429.00	0.8023
432.00	0.7931
435.00	0.7887
438.00	0.7886
441.00	0.7915
444.00	0.7973
447.00	0.8056
450.00	0.8161
453.00	0.8287
456.00	0.8424
459.00	0.8562
462.00	0.8709
465.00	0.8853
468.00	0.8994
471.00	0.9120
474.00	0.9240
477.00	0.9356
480.00	0.9462
483.00	0.9554
486.00	0.9623
489.00	0.9671
492.00	0.9713
495.00	0.9747
498.00	0.9778
501.00	0.9795
504.00	0.9790
507.00	0.9772
510.00	0.9733
513.00	0.9678
516.00	0.9600
519.00	0.9511
522.00	0.9420
525.00	0.9315
528.00	0.9209
531.00	0.9103
534.00	0.8982
537.00	0.8870
540.00	0.8765
543.00	0.8641
546.00	0.8521
549.00	0.8403
552.00	0.8286
555.00	0.8159
558.00	0.8034
561.00	0.7908
564.00	0.7785
567.00	0.7654
570.00	0.7517
573.00	0.7388
576.00	0.7245
579.00	0.7100
582.00	0.6957
585.00	0.6807
588.00	0.6653
591.00	0.6502
594.00	0.6346
597.00	0.6196
600.00	0.6048
603.00	0.5906
606.00	0.5765
609.00	0.5639
612.00	0.5525
615.00	0.5413
618.00	0.5324
621.00	0.5239
624.00	0.5168
627.00	0.5116
630.00	0.5068
633.00	0.5020
636.00	0.4987
639.00	0.4978
642.00	0.4957
645.00	0.4948
648.00	0.4948
651.00	0.4960
654.00	0.4972
657.00	0.4994
660.00	0.5011
663.00	0.5020
666.00	0.5040
669.00	0.5064
672.00	0.5105
675.00	0.5141
678.00	0.5173
681.00	0.5207
684.00	0.5242
687.00	0.5266
690.00	0.5278
693.00	0.5295
696.00	0.5305
699.00	0.5315
702.00	0.5327
705.00	0.5341
708.00	0.5347
711.00	0.5352
714.00	0.5361
717.00	0.5369
720.00	0.5382
723.00	0.5401
726.00	0.5411
729.00	0.5444
732.00	0.5483
735.00	0.5529
738.00	0.5573
741.00	0.5630
744.00	0.5685
747.00	0.5735
750.00	0.5783
753.00	0.5818
756.00	0.5850
759.00	0.5876
762.00	0.5901
765.00	0.5922
768.00	0.5920
771.00	0.5879
774.00	0.5819
777.00	0.5741
780.00	0.5663
783.00	0.5581
786.00	0.5522
789.00	0.5456
792.00	0.5376
795.00	0.5288
798.00	0.5186
801.00	0.5087
804.00	0.5005
807.00	0.4929
810.00	0.4871
813.00	0.4830
816.00	0.4806
819.00	0.4792
822.00	0.4786
825.00	0.4795
828.00	0.4813
831.00	0.4846
834.00	0.4882
837.00	0.4925
840.00	0.4978
843.00	0.5043
846.00	0.5109
849.00	0.5164
852.00	0.5202
855.00	0.5215
858.00	0.5206
861.00	0.5183
864.00	0.5159
867.00	0.5132
870.00	0.5101
873.00	0.5051
876.00	0.4982
879.00	0.4877
882.00	0.4759
885.00	0.4634
888.00	0.4496
891.00	0.4357
894.00	0.4224
897.00	0.4101
900.00	0.3986
903.00	0.3870
906.00	0.3762
909.00	0.3658
912.00	0.3555
915.00	0.3461
918.00	0.3371
921.00	0.3287
924.00	0.3201
927.00	0.3121
930.00	0.3043
933.00	0.2966
936.00	0.2896
939.00	0.2827
942.00	0.2761
945.00	0.2695
948.00	0.2630
951.00	0.2568
954.00	0.2508
957.00	0.2451
960.00	0.2392
963.00	0.2337
966.00	0.2281
969.00	0.2231
972.00	0.2173
975.00	0.2122
978.00	0.2076
981.00	0.2026
984.00	0.1981
987.00	0.1935
990.00	0.1890
993.00	0.1848
996.00	0.1807
999.00	0.1764
1002.00	0.1719
1005.00	0.1679
1008.00	0.1646
1011.00	0.1607
1014.00	0.1572
1017.00	0.1540
1020.00	0.1510
1023.00	0.1475
1026.00	0.1443
1029.00	0.1412
1032.00	0.1386
1035.00	0.1358
1038.00	0.1331
1041.00	0.1309
1044.00	0.1284
1047.00	0.1261
1050.00	0.1239
1053.00	0.1218
1056.00	0.1195
1059.00	0.1176
1062.00	0.1156
1065.00	0.1144
1068.00	0.1130
1071.00	0.1114
1074.00	0.1098
1077.00	0.1082
1080.00	0.1070
1083.00	0.1061
1086.00	0.1050
1089.00	0.1041
1092.00	0.1030
1095.00	0.1019
1098.00	0.1014
1101.00	0.1007
1104.00	0.0994
1107.00	0.0989
1110.00	0.0985
1113.00	0.0981
1116.00	0.0977
1119.00	0.0969
1122.00	0.0965
1125.00	0.0963
1128.00	0.0960
1131.00	0.0957
1134.00	0.0956
1137.00	0.0953
1140.00	0.0954
1143.00	0.0951
1146.00	0.0947
1149.00	0.0948
1152.00	0.0948
1155.00	0.0949
1158.00	0.0952
1161.00	0.0954
1164.00	0.0955
1167.00	0.0957
1170.00	0.0958
1173.00	0.0959
1176.00	0.0959
1179.00	0.0964
1182.00	0.0967
1185.00	0.0967
1188.00	0.0969
1191.00	0.0980
1194.00	0.0987
1197.00	0.0991
1200.00	0.0988
1203.00	0.0997
1206.00	0.1008
1209.00	0.1006
1212.00	0.1009
1215.00	0.1014
1218.00	0.1017
1221.00	0.1025
1224.00	0.1031
1227.00	0.1038
1230.00	0.1047
1233.00	0.1059
1236.00	0.1060
1239.00	0.1062
1242.00	0.1068
1245.00	0.1077
1248.00	0.1086
1251.00	0.1091
1254.00	0.1097
1257.00	0.1106
1260.00	0.1117
1263.00	0.1126
1266.00	0.1134
1269.00	0.1140
1272.00	0.1150
1275.00	0.1158
1278.00	0.1168
1281.00	0.1180
1284.00	0.1192
1287.00	0.1196
1290.00	0.1204
1293.00	0.1217
1296.00	0.1225
1299.00	0.1237
1302.00	0.1249
1305.00	0.1261
1308.00	0.1270
1311.00	0.1282
1314.00	0.1295
1317.00	0.1308
1320.00	0.1318
1323.00	0.1328
1326.00	0.1341
1329.00	0.1351
1332.00	0.1367
1335.00	0.1379
1338.00	0.1394
1341.00	0.1412
1344.00	0.1426
1347.00	0.1441
1350.00	0.1456
1353.00	0.1472
1356.00	0.1490
1359.00	0.1506
1362.00	0.1523
1365.00	0.1541
1368.00	0.1561
1371.00	0.1580
1374.00	0.1598
1377.00	0.1619
1380.00	0.1641
1383.00	0.1660
1386.00	0.1679
1389.00	0.1696
1392.00	0.1716
1395.00	0.1732
1398.00	0.1751
1401.00	0.1771
1404.00	0.1795
1407.00	0.1816
1410.00	0.1837
1413.00	0.1856
1416.00	0.1879
1419.00	0.1899
1422.00	0.1918
1425.00	0.1938
1428.00	0.1963
1431.00	0.1975
1434.00	0.1995
1437.00	0.2023
1440.00	0.2049
1443.00	0.2068
1446.00	0.2090
1449.00	0.2114
1452.00	0.2141
1455.00	0.2162
1458.00	0.2186
1461.00	0.2211
1464.00	0.2232
1467.00	0.2253
1470.00	0.2280
1473.00	0.2310
1476.00	0.2323
1479.00	0.2342
1482.00	0.2377
1485.00	0.2403
1488.00	0.2420
1491.00	0.2447
1494.00	0.2475
1497.00	0.2501
1500.00	0.2523
1503.00	0.2549
1506.00	0.2577
1509.00	0.2607
1512.00	0.2631
1515.00	0.2657
1518.00	0.2684
1521.00	0.2706
1524.00	0.2729
1527.00	0.2759
1530.00	0.2786
1533.00	0.2812
1536.00	0.2838
1539.00	0.2864
1542.00	0.2889
1545.00	0.2916
1548.00	0.2944
1551.00	0.2970
1554.00	0.3005
1557.00	0.3028
1560.00	0.3049
1563.00	0.3078
1566.00	0.3103
1569.00	0.3126
1572.00	0.3155
1575.00	0.3181
1578.00	0.3209
1581.00	0.3237
1584.00	0.3261
1587.00	0.3290
1590.00	0.3316
1593.00	0.3342
1596.00	0.3368
1599.00	0.3392
1602.00	0.3418
1605.00	0.3447
1608.00	0.3470
1611.00	0.3491
1614.00	0.3520
1617.00	0.3546
1620.00	0.3571
1623.00	0.3592
1626.00	0.3622
1629.00	0.3645
1632.00	0.3662
1635.00	0.3683
1638.00	0.3706
1641.00	0.3720
1644.00	0.3736
1647.00	0.3747
1650.00	0.3755
1653.00	0.3763
1656.00	0.3771
1659.00	0.3787
1662.00	0.3805
1665.00	0.3825
1668.00	0.3843
1671.00	0.3863
1674.00	0.3884
1677.00	0.3909
1680.00	0.3926
1683.00	0.3947
1686.00	0.3969
1689.00	0.3989
1692.00	0.4003
1695.00	0.4017
1698.00	0.4040
1701.00	0.4063
1704.00	0.4075
1707.00	0.4090
1710.00	0.4112
1713.00	0.4133
1716.00	0.4156
1719.00	0.4166
1722.00	0.4183
1725.00	0.4201
1728.00	0.4217
1731.00	0.4235
1734.00	0.4253
1737.00	0.4270
1740.00	0.4284
1743.00	0.4300
1746.00	0.4314
1749.00	0.4332
1752.00	0.4350
1755.00	0.4367
1758.00	0.4378
1761.00	0.4383
1764.00	0.4402
1767.00	0.4424
1770.00	0.4440
1773.00	0.4448
1776.00	0.4466
1779.00	0.4478
1782.00	0.4491
1785.00	0.4511
1788.00	0.4523
1791.00	0.4534
1794.00	0.4547
1797.00	0.4561
1800.00	0.4574
1803.00	0.4586
1806.00	0.4601
1809.00	0.4617
1812.00	0.4627
1815.00	0.4633
1818.00	0.4644
1821.00	0.4658
1824.00	0.4669
1827.00	0.4678
1830.00	0.4686
1833.00	0.4701
1836.00	0.4714
1839.00	0.4721
1842.00	0.4726
1845.00	0.4731
1848.00	0.4738
1851.00	0.4744
1854.00	0.4759
1857.00	0.4780
1860.00	0.4792
1863.00	0.4792
1866.00	0.4795
1869.00	0.4802
1872.00	0.4819
1875.00	0.4831
1878.00	0.4832
1881.00	0.4832
1884.00	0.4835
1887.00	0.4839
1890.00	0.4845
1893.00	0.4856
1896.00	0.4863
1899.00	0.4879
1902.00	0.4899
1905.00	0.4916
1908.00	0.4912
1911.00	0.4912
1914.00	0.4907
1917.00	0.4909
1920.00	0.4916
1923.00	0.4924
1926.00	0.4930
1929.00	0.4934
1932.00	0.4935
1935.00	0.4936
1938.00	0.4945
1941.00	0.4958
1944.00	0.4959
1947.00	0.4964
1950.00	0.4964
1953.00	0.4965
1956.00	0.4970
1959.00	0.4978
1962.00	0.4979
1965.00	0.4982
1968.00	0.4986
1971.00	0.4993
1974.00	0.4995
1977.00	0.4997
1980.00	0.5006
1983.00	0.5005
1986.00	0.5010
1989.00	0.5015
1992.00	0.5019
1995.00	0.5018
1998.00	0.5022
2001.00	0.5028
2004.00	0.5026
2007.00	0.5025
2010.00	0.5032
2013.00	0.5037
2016.00	0.5042
2019.00	0.5040
2022.00	0.5038
2025.00	0.5036
2028.00	0.5036
2031.00	0.5038
2034.00	0.5044
2037.00	0.5049
2040.00	0.5037
2043.00	0.5038
2046.00	0.5046
2049.00	0.5045
2052.00	0.5053
2055.00	0.5069
2058.00	0.5069
2061.00	0.5063
2064.00	0.5063
2067.00	0.5071
2070.00	0.5068
2073.00	0.5069
2076.00	0.5068
2079.00	0.5066
2082.00	0.5070
2085.00	0.5073
2088.00	0.5073
2091.00	0.5075
2094.00	0.5078
2097.00	0.5067
2100.00	0.5071
2103.00	0.5066
2106.00	0.5055
2109.00	0.5058
2112.00	0.5060
2115.00	0.5065
2118.00	0.5060
2121.00	0.5057
2124.00	0.5067
2127.00	0.5062
2130.00	0.5062
2133.00	0.5065
2136.00	0.5060
2139.00	0.5058
2142.00	0.5058
2145.00	0.5060
2148.00	0.5054
2151.00	0.5046
2154.00	0.5049
2157.00	0.5046
2160.00	0.5037
2163.00	0.5041
2166.00	0.5043
2169.00	0.5041
2172.00	0.5038
2175.00	0.5037
2178.00	0.5042
2181.00	0.5039
2184.00	0.5035
2187.00	0.5033
2190.00	0.5039
2193.00	0.5037
2196.00	0.5034
2199.00	0.5037
2202.00	0.5048
2205.00	0.5050
2208.00	0.5043
2211.00	0.5043
2214.00	0.5035
2217.00	0.5042
2220.00	0.5036
2223.00	0.5021
2226.00	0.5015
2229.00	0.5016
2232.00	0.5018
2235.00	0.5014
2238.00	0.5000
2241.00	0.5004
2244.00	0.5003
2247.00	0.4996
2250.00	0.4987
2253.00	0.4980
2256.00	0.4983
2259.00	0.4981
2262.00	0.4978
2265.00	0.4975
2268.00	0.4970
2271.00	0.4966
2274.00	0.4958
2277.00	0.4958
2280.00	0.4956
2283.00	0.4945
2286.00	0.4936
2289.00	0.4934
2292.00	0.4929
2295.00	0.4933
2298.00	0.4930
2301.00	0.4925
2304.00	0.4923
2307.00	0.4920
2310.00	0.4921
2313.00	0.4912
2316.00	0.4906
2319.00	0.4898
2322.00	0.4894
2325.00	0.4888
2328.00	0.4889
2331.00	0.4885
2334.00	0.4885
2337.00	0.4882
2340.00	0.4874
2343.00	0.4870
2346.00	0.4863
2349.00	0.4851
2352.00	0.4856
2355.00	0.4856
2358.00	0.4844
2361.00	0.4838
2364.00	0.4843
2367.00	0.4831
2370.00	0.4833
2373.00	0.4833
2376.00	0.4836
2379.00	0.4819
2382.00	0.4814
2385.00	0.4812
2388.00	0.4806
2391.00	0.4808
2394.00	0.4800
2397.00	0.4803
2400.00	0.4794
2403.00	0.4781
2406.00	0.4785
2409.00	0.4783
2412.00	0.4779
2415.00	0.4771
2418.00	0.4770
2421.00	0.4761
2424.00	0.4763
2427.00	0.4765
2430.00	0.4741
2433.00	0.4735
2436.00	0.4740
2439.00	0.4749
2442.00	0.4745
2445.00	0.4751
2448.00	0.4736
2451.00	0.4734
2454.00	0.4730
2457.00	0.4725
2460.00	0.4717
2463.00	0.4712
2466.00	0.4706
2469.00	0.4699
2472.00	0.4700
2475.00	0.4707
2478.00	0.4698
2481.00	0.4688
2484.00	0.4680
2487.00	0.4682
2490.00	0.4689
2493.00	0.4682
2496.00	0.4666
2499.00	0.4663
2502.00	0.4662
2505.00	0.4660
2508.00	0.4656
2511.00	0.4654
2514.00	0.4653
2517.00	0.4655
2520.00	0.4652
2523.00	0.4639
2526.00	0.4624
2529.00	0.4613
2532.00	0.4619
2535.00	0.4622
2538.00	0.4621
2541.00	0.4616
2544.00	0.4608
2547.00	0.4597
2550.00	0.4596
2553.00	0.4599
2556.00	0.4586
2559.00	0.4588
2562.00	0.4606
2565.00	0.4606
2568.00	0.4593
2571.00	0.4601
2574.00	0.4620
2577.00	0.4633
2580.00	0.4623
2583.00	0.4587
2586.00	0.4554
2589.00	0.4543
2592.00	0.4565
2595.00	0.4579
2598.00	0.4576
2601.00	0.4564
2604.00	0.4529
2607.00	0.4511
2610.00	0.4519
2613.00	0.4529
2616.00	0.4552
2619.00	0.4571
2622.00	0.4556
2625.00	0.4551
2628.00	0.4556
2631.00	0.4547
2634.00	0.4527
2637.00	0.4515
2640.00	0.4507
2643.00	0.4501
2646.00	0.4504
2649.00	0.4516
2652.00	0.4517
2655.00	0.4524
2658.00	0.4523
2661.00	0.4519
2664.00	0.4516
2667.00	0.4512
2670.00	0.4520
2673.00	0.4555
2676.00	0.4610
2679.00	0.4648
2682.00	0.4731
2685.00	0.4803
2688.00	0.4938
2691.00	0.5094
2694.00	0.5331
2697.00	0.5636
2700.00	0.5830
2703.00	0.6023
2706.00	0.6190
2709.00	0.6408
2712.00	0.6543
2715.00	0.6752
2718.00	0.6913
2721.00	0.6975
2724.00	0.6939
2727.00	0.6903
2730.00	0.6793
2733.00	0.6688
2736.00	0.6598
2739.00	0.6438
2742.00	0.6313
2745.00	0.6187
2748.00	0.6148
2751.00	0.6039
2754.00	0.5974
2757.00	0.5864
2760.00	0.5770
2763.00	0.5643
2766.00	0.5547
2769.00	0.5432
2772.00	0.5319
2775.00	0.5239
2778.00	0.5164
2781.00	0.5071
2784.00	0.5031
2787.00	0.4992
2790.00	0.4940
2793.00	0.4873
2796.00	0.4829
2799.00	0.4773
2802.00	0.4728
2805.00	0.4691
2808.00	0.4637
2811.00	0.4601
2814.00	0.4564
2817.00	0.4533
2820.00	0.4505
2823.00	0.4477
2826.00	0.4455
2829.00	0.4426
2832.00	0.4408
2835.00	0.4387
2838.00	0.4372
2841.00	0.4355
2844.00	0.4340
2847.00	0.4319
2850.00	0.4301
2853.00	0.4283
2856.00	0.4268
2859.00	0.4256
2862.00	0.4243
2865.00	0.4234
2868.00	0.4218
2871.00	0.4213
2874.00	0.4208
2877.00	0.4194
2880.00	0.4188
2883.00	0.4173
2886.00	0.4167
2889.00	0.4159
2892.00	0.4146
2895.00	0.4132
2898.00	0.4123
2901.00	0.4121
2904.00	0.4120
2907.00	0.4113
2910.00	0.4100
2913.00	0.4082
2916.00	0.4074
2919.00	0.4068
2922.00	0.4068
2925.00	0.4062
2928.00	0.4057
2931.00	0.4052
2934.00	0.4044
2937.00	0.4038
2940.00	0.4032
2943.00	0.4026
2946.00	0.4019
2949.00	0.4010
2952.00	0.4003
2955.00	0.3999
2958.00	0.3998
2961.00	0.3996
2964.00	0.4003
2967.00	0.3996
2970.00	0.3997
2973.00	0.3990
2976.00	0.3976
2979.00	0.3965
2982.00	0.3957
2985.00	0.3952
2988.00	0.3953
2991.00	0.3949
2994.00	0.3944
2997.00	0.3957
3000.00	0.3966
3003.00	0.3978
3006.00	0.3990
3009.00	0.4004
3012.00	0.3998
3015.00	0.3994
3018.00	0.3990
3021.00	0.3987
3024.00	0.3981
3027.00	0.3977
3030.00	0.3974
3033.00	0.3971
3036.00	0.3966
3039.00	0.3961
3042.00	0.3952
3045.00	0.3947
3048.00	0.3940
3051.00	0.3935
3054.00	0.3934
3057.00	0.3932
3060.00	0.3935
3063.00	0.3932
3066.00	0.3934
3069.00	0.3927
3072.00	0.3928
3075.00	0.3919
3078.00	0.3913
3081.00	0.3909
3084.00	0.3895
3087.00	0.3889
3090.00	0.3885
3093.00	0.3884
3096.00	0.3876
3099.00	0.3872
3102.00	0.3870
3105.00	0.3863
3108.00	0.3861
3111.00	0.3856
3114.00	0.3854
3117.00	0.3849
3120.00	0.3846
3123.00	0.3839
3126.00	0.3832
3129.00	0.3825
3132.00	0.3815
3135.00	0.3807
3138.00	0.3798
3141.00	0.3794
3144.00	0.3791
3147.00	0.3792
3150.00	0.3782
3153.00	0.3781
3156.00	0.3777
3159.00	0.3772
3162.00	0.3764
3165.00	0.3761
3168.00	0.3769
3171.00	0.3761
3174.00	0.3763
3177.00	0.3775
3180.00	0.3779
3183.00	0.3776
3186.00	0.3773
3189.00	0.3770
3192.00	0.3753
3195.00	0.3750
3198.00	0.3738
3201.00	0.3723
3204.00	0.3724
3207.00	0.3707
3210.00	0.3693
3213.00	0.3696
3216.00	0.3686
3219.00	0.3706
3222.00	0.3702
3225.00	0.3718
3228.00	0.3714
3231.00	0.3705
3234.00	0.3688
3237.00	0.3666
3240.00	0.3658
3243.00	0.3649
3246.00	0.3639
3249.00	0.3635
3252.00	0.3645
3255.00	0.3631
3258.00	0.3646
3261.00	0.3628
3264.00	0.3627
3267.00	0.3616
3270.00	0.3565
3273.00	0.3539
3276.00	0.3513
3279.00	0.3536
3282.00	0.3557
3285.00	0.3596
3288.00	0.3616
3291.00	0.3576
3294.00	0.3637
3297.00	0.3624
3300.00	0.3633