File: THF_UV_VIS_0mM.txt
"20-30mM-1_THF0mM - RawData"
"Wavelength nm."	"Abs."
300.00	0.1900
303.00	0.1865
306.00	0.1817
309.00	0.1791
312.00	0.1764
315.00	0.1758
318.00	0.1769
321.00	0.1784
324.00	0.1806
327.00	0.1838
330.00	0.1869
333.00	0.1899
336.00	0.1958
339.00	0.2027
342.00	0.2090
345.00	0.2161
348.00	0.2228
351.00	0.2294
354.00	0.2371
357.00	0.2447
360.00	0.2519
363.00	0.2591
366.00	0.2692
369.00	0.2800
372.00	0.2906
375.00	0.2997
378.00	0.3088
381.00	0.3199
384.00	0.3314
387.00	0.3441
390.00	0.3572
393.00	0.3708
396.00	0.3849
399.00	0.3993
402.00	0.4142
405.00	0.4303
408.00	0.4467
411.00	0.4632
414.00	0.4810
417.00	0.5002
420.00	0.5194
423.00	0.5397
426.00	0.5600
429.00	0.5807
432.00	0.6026
435.00	0.6255
438.00	0.6499
441.00	0.6746
444.00	0.6997
447.00	0.7265
450.00	0.7521
453.00	0.7775
456.00	0.8032
459.00	0.8295
462.00	0.8560
465.00	0.8822
468.00	0.9090
471.00	0.9344
474.00	0.9576
477.00	0.9791
480.00	0.9996
483.00	1.0172
486.00	1.0325
489.00	1.0468
492.00	1.0593
495.00	1.0711
498.00	1.0815
501.00	1.0903
504.00	1.0981
507.00	1.1046
510.00	1.1091
513.00	1.1119
516.00	1.1123
519.00	1.1091
522.00	1.1047
525.00	1.0990
528.00	1.0903
531.00	1.0808
534.00	1.0719
537.00	1.0639
540.00	1.0563
543.00	1.0485
546.00	1.0394
549.00	1.0287
552.00	1.0150
555.00	0.9973
558.00	0.9757
561.00	0.9491
564.00	0.9188
567.00	0.8861
570.00	0.8513
573.00	0.8168
576.00	0.7841
579.00	0.7540
582.00	0.7269
585.00	0.7037
588.00	0.6835
591.00	0.6661
594.00	0.6501
597.00	0.6339
600.00	0.6155
603.00	0.5937
606.00	0.5663
609.00	0.5336
612.00	0.4964
615.00	0.4544
618.00	0.4148
621.00	0.3718
624.00	0.3291
627.00	0.2894
630.00	0.2526
633.00	0.2184
636.00	0.1883
639.00	0.1633
642.00	0.1413
645.00	0.1230
648.00	0.1075
651.00	0.0947
654.00	0.0833
657.00	0.0732
660.00	0.0667
663.00	0.0618
666.00	0.0573
669.00	0.0528
672.00	0.0500
675.00	0.0460
678.00	0.0422
681.00	0.0394
684.00	0.0374
687.00	0.0348
690.00	0.0327
693.00	0.0316
696.00	0.0305
699.00	0.0285
702.00	0.0270
705.00	0.0266
708.00	0.0256
711.00	0.0251
714.00	0.0243
717.00	0.0233
720.00	0.0224
723.00	0.0223
726.00	0.0200
729.00	0.0196
732.00	0.0196
735.00	0.0186
738.00	0.0178
741.00	0.0184
744.00	0.0176
747.00	0.0170
750.00	0.0174
753.00	0.0171
756.00	0.0172
759.00	0.0169
762.00	0.0168
765.00	0.0172
768.00	0.0171
771.00	0.0159
774.00	0.0156
777.00	0.0163
780.00	0.0161
783.00	0.0158
786.00	0.0161
789.00	0.0158
792.00	0.0152
795.00	0.0140
798.00	0.0125
801.00	0.0110
804.00	0.0098
807.00	0.0084
810.00	0.0080
813.00	0.0070
816.00	0.0069
819.00	0.0078
822.00	0.0079
825.00	0.0076
828.00	0.0077
831.00	0.0087
834.00	0.0093
837.00	0.0093
840.00	0.0097
843.00	0.0104
846.00	0.0104
849.00	0.0105
852.00	0.0109
855.00	0.0112
858.00	0.0115
861.00	0.0117
864.00	0.0119
867.00	0.0120
870.00	0.0119
873.00	0.0122
876.00	0.0130
879.00	0.0132
882.00	0.0134
885.00	0.0137
888.00	0.0135
891.00	0.0141
894.00	0.0145
897.00	0.0147
900.00	0.0148
903.00	0.0151
906.00	0.0156
909.00	0.0160
912.00	0.0161
915.00	0.0163
918.00	0.0167
921.00	0.0173
924.00	0.0172
927.00	0.0174
930.00	0.0176
933.00	0.0177
936.00	0.0183
939.00	0.0188
942.00	0.0191
945.00	0.0193
948.00	0.0194
951.00	0.0199
954.00	0.0204
957.00	0.0205
960.00	0.0207
963.00	0.0209
966.00	0.0215
969.00	0.0224
972.00	0.0218
975.00	0.0215
978.00	0.0224
981.00	0.0225
984.00	0.0228
987.00	0.0233
990.00	0.0237
993.00	0.0239
996.00	0.0241
999.00	0.0245
1002.00	0.0238
1005.00	0.0237
1008.00	0.0251
1011.00	0.0256
1014.00	0.0250
1017.00	0.0251
1020.00	0.0258
1023.00	0.0262
1026.00	0.0262
1029.00	0.0262
1032.00	0.0265
1035.00	0.0264
1038.00	0.0266
1041.00	0.0269
1044.00	0.0272
1047.00	0.0276
1050.00	0.0273
1053.00	0.0274
1056.00	0.0279
1059.00	0.0289
1062.00	0.0288
1065.00	0.0283
1068.00	0.0291
1071.00	0.0291
1074.00	0.0288
1077.00	0.0290
1080.00	0.0292
1083.00	0.0294
1086.00	0.0294
1089.00	0.0298
1092.00	0.0302
1095.00	0.0300
1098.00	0.0303
1101.00	0.0307
1104.00	0.0305
1107.00	0.0307
1110.00	0.0307
1113.00	0.0306
1116.00	0.0305
1119.00	0.0306
1122.00	0.0311
1125.00	0.0312
1128.00	0.0314
1131.00	0.0316
1134.00	0.0318
1137.00	0.0318
1140.00	0.0321
1143.00	0.0320
1146.00	0.0322
1149.00	0.0324
1152.00	0.0328
1155.00	0.0328
1158.00	0.0328
1161.00	0.0330
1164.00	0.0332
1167.00	0.0332
1170.00	0.0337
1173.00	0.0340
1176.00	0.0337
1179.00	0.0339
1182.00	0.0338
1185.00	0.0339
1188.00	0.0340
1191.00	0.0344
1194.00	0.0346
1197.00	0.0352
1200.00	0.0349
1203.00	0.0352
1206.00	0.0354
1209.00	0.0354
1212.00	0.0354
1215.00	0.0348
1218.00	0.0352
1221.00	0.0359
1224.00	0.0361
1227.00	0.0359
1230.00	0.0361
1233.00	0.0367
1236.00	0.0365
1239.00	0.0361
1242.00	0.0362
1245.00	0.0364
1248.00	0.0365
1251.00	0.0361
1254.00	0.0362
1257.00	0.0364
1260.00	0.0361
1263.00	0.0355
1266.00	0.0357
1269.00	0.0367
1272.00	0.0367
1275.00	0.0364
1278.00	0.0364
1281.00	0.0367
1284.00	0.0367
1287.00	0.0364
1290.00	0.0363
1293.00	0.0365
1296.00	0.0367
1299.00	0.0367
1302.00	0.0366
1305.00	0.0370
1308.00	0.0366
1311.00	0.0364
1314.00	0.0364
1317.00	0.0365
1320.00	0.0365
1323.00	0.0364
1326.00	0.0367
1329.00	0.0363
1332.00	0.0364
1335.00	0.0363
1338.00	0.0364
1341.00	0.0364
1344.00	0.0366
1347.00	0.0368
1350.00	0.0364
1353.00	0.0378
1356.00	0.0370
1359.00	0.0363
1362.00	0.0365
1365.00	0.0370
1368.00	0.0372
1371.00	0.0371
1374.00	0.0372
1377.00	0.0377
1380.00	0.0381
1383.00	0.0375
1386.00	0.0376
1389.00	0.0380
1392.00	0.0379
1395.00	0.0376
1398.00	0.0378
1401.00	0.0381
1404.00	0.0379
1407.00	0.0376
1410.00	0.0375
1413.00	0.0373
1416.00	0.0377
1419.00	0.0378
1422.00	0.0379
1425.00	0.0378
1428.00	0.0379
1431.00	0.0366
1434.00	0.0369
1437.00	0.0378
1440.00	0.0378
1443.00	0.0372
1446.00	0.0369
1449.00	0.0374
1452.00	0.0378
1455.00	0.0373
1458.00	0.0372
1461.00	0.0366
1464.00	0.0370
1467.00	0.0368
1470.00	0.0368
1473.00	0.0375
1476.00	0.0362
1479.00	0.0359
1482.00	0.0365
1485.00	0.0373
1488.00	0.0369
1491.00	0.0363
1494.00	0.0362
1497.00	0.0373
1500.00	0.0370
1503.00	0.0369
1506.00	0.0367
1509.00	0.0374
1512.00	0.0373
1515.00	0.0374
1518.00	0.0372
1521.00	0.0371
1524.00	0.0369
1527.00	0.0372
1530.00	0.0369
1533.00	0.0366
1536.00	0.0367
1539.00	0.0365
1542.00	0.0366
1545.00	0.0370
1548.00	0.0366
1551.00	0.0363
1554.00	0.0365
1557.00	0.0365
1560.00	0.0364
1563.00	0.0369
1566.00	0.0370
1569.00	0.0361
1572.00	0.0361
1575.00	0.0366
1578.00	0.0370
1581.00	0.0367
1584.00	0.0362
1587.00	0.0363
1590.00	0.0367
1593.00	0.0366
1596.00	0.0367
1599.00	0.0370
1602.00	0.0372
1605.00	0.0371
1608.00	0.0369
1611.00	0.0371
1614.00	0.0371
1617.00	0.0371
1620.00	0.0370
1623.00	0.0367
1626.00	0.0372
1629.00	0.0374
1632.00	0.0370
1635.00	0.0367
1638.00	0.0366
1641.00	0.0362
1644.00	0.0357
1647.00	0.0345
1650.00	0.0333
1653.00	0.0322
1656.00	0.0313
1659.00	0.0308
1662.00	0.0309
1665.00	0.0304
1668.00	0.0302
1671.00	0.0301
1674.00	0.0300
1677.00	0.0300
1680.00	0.0295
1683.00	0.0299
1686.00	0.0301
1689.00	0.0303
1692.00	0.0294
1695.00	0.0289
1698.00	0.0298
1701.00	0.0301
1704.00	0.0294
1707.00	0.0291
1710.00	0.0293
1713.00	0.0296
1716.00	0.0301
1719.00	0.0298
1722.00	0.0296
1725.00	0.0295
1728.00	0.0301
1731.00	0.0304
1734.00	0.0297
1737.00	0.0298
1740.00	0.0299
1743.00	0.0302
1746.00	0.0300
1749.00	0.0297
1752.00	0.0298
1755.00	0.0301
1758.00	0.0303
1761.00	0.0298
1764.00	0.0298
1767.00	0.0299
1770.00	0.0303
1773.00	0.0300
1776.00	0.0298
1779.00	0.0290
1782.00	0.0296
1785.00	0.0300
1788.00	0.0294
1791.00	0.0293
1794.00	0.0296
1797.00	0.0299
1800.00	0.0294
1803.00	0.0297
1806.00	0.0301
1809.00	0.0298
1812.00	0.0298
1815.00	0.0292
1818.00	0.0283
1821.00	0.0285
1824.00	0.0291
1827.00	0.0295
1830.00	0.0291
1833.00	0.0296
1836.00	0.0297
1839.00	0.0298
1842.00	0.0296
1845.00	0.0292
1848.00	0.0286
1851.00	0.0276
1854.00	0.0276
1857.00	0.0290
1860.00	0.0287
1863.00	0.0284
1866.00	0.0285
1869.00	0.0293
1872.00	0.0295
1875.00	0.0295
1878.00	0.0292
1881.00	0.0289
1884.00	0.0290
1887.00	0.0287
1890.00	0.0284
1893.00	0.0284
1896.00	0.0282
1899.00	0.0286
1902.00	0.0291
1905.00	0.0291
1908.00	0.0288
1911.00	0.0291
1914.00	0.0295
1917.00	0.0298
1920.00	0.0290
1923.00	0.0287
1926.00	0.0291
1929.00	0.0285
1932.00	0.0283
1935.00	0.0286
1938.00	0.0285
1941.00	0.0289
1944.00	0.0286
1947.00	0.0286
1950.00	0.0285
1953.00	0.0282
1956.00	0.0289
1959.00	0.0285
1962.00	0.0284
1965.00	0.0279
1968.00	0.0279
1971.00	0.0284
1974.00	0.0280
1977.00	0.0281
1980.00	0.0282
1983.00	0.0280
1986.00	0.0280
1989.00	0.0283
1992.00	0.0287
1995.00	0.0283
1998.00	0.0281
2001.00	0.0285
2004.00	0.0281
2007.00	0.0282
2010.00	0.0284
2013.00	0.0282
2016.00	0.0279
2019.00	0.0274
2022.00	0.0278
2025.00	0.0281
2028.00	0.0274
2031.00	0.0277
2034.00	0.0280
2037.00	0.0282
2040.00	0.0279
2043.00	0.0271
2046.00	0.0275
2049.00	0.0272
2052.00	0.0269
2055.00	0.0280
2058.00	0.0279
2061.00	0.0276
2064.00	0.0278
2067.00	0.0278
2070.00	0.0279
2073.00	0.0270
2076.00	0.0267
2079.00	0.0272
2082.00	0.0274
2085.00	0.0273
2088.00	0.0274
2091.00	0.0273
2094.00	0.0274
2097.00	0.0263
2100.00	0.0268
2103.00	0.0266
2106.00	0.0256
2109.00	0.0259
2112.00	0.0265
2115.00	0.0268
2118.00	0.0269
2121.00	0.0263
2124.00	0.0263
2127.00	0.0260
2130.00	0.0263
2133.00	0.0269
2136.00	0.0269
2139.00	0.0264
2142.00	0.0266
2145.00	0.0270
2148.00	0.0273
2151.00	0.0267
2154.00	0.0261
2157.00	0.0257
2160.00	0.0260
2163.00	0.0256
2166.00	0.0263
2169.00	0.0268
2172.00	0.0265
2175.00	0.0266
2178.00	0.0266
2181.00	0.0268
2184.00	0.0275
2187.00	0.0269
2190.00	0.0272
2193.00	0.0272
2196.00	0.0268
2199.00	0.0280
2202.00	0.0287
2205.00	0.0287
2208.00	0.0279
2211.00	0.0281
2214.00	0.0278
2217.00	0.0276
2220.00	0.0277
2223.00	0.0272
2226.00	0.0272
2229.00	0.0266
2232.00	0.0267
2235.00	0.0276
2238.00	0.0270
2241.00	0.0279
2244.00	0.0286
2247.00	0.0281
2250.00	0.0271
2253.00	0.0274
2256.00	0.0279
2259.00	0.0282
2262.00	0.0275
2265.00	0.0269
2268.00	0.0269
2271.00	0.0267
2274.00	0.0263
2277.00	0.0265
2280.00	0.0262
2283.00	0.0254
2286.00	0.0255
2289.00	0.0260
2292.00	0.0256
2295.00	0.0253
2298.00	0.0256
2301.00	0.0254
2304.00	0.0253
2307.00	0.0258
2310.00	0.0257
2313.00	0.0250
2316.00	0.0244
2319.00	0.0245
2322.00	0.0253
2325.00	0.0251
2328.00	0.0244
2331.00	0.0248
2334.00	0.0253
2337.00	0.0246
2340.00	0.0248
2343.00	0.0248
2346.00	0.0252
2349.00	0.0245
2352.00	0.0252
2355.00	0.0252
2358.00	0.0248
2361.00	0.0251
2364.00	0.0246
2367.00	0.0242
2370.00	0.0242
2373.00	0.0239
2376.00	0.0244
2379.00	0.0252
2382.00	0.0245
2385.00	0.0239
2388.00	0.0246
2391.00	0.0242
2394.00	0.0241
2397.00	0.0247
2400.00	0.0248
2403.00	0.0241
2406.00	0.0243
2409.00	0.0244
2412.00	0.0244
2415.00	0.0245
2418.00	0.0248
2421.00	0.0242
2424.00	0.0231
2427.00	0.0237
2430.00	0.0243
2433.00	0.0238
2436.00	0.0239
2439.00	0.0239
2442.00	0.0246
2445.00	0.0246
2448.00	0.0244
2451.00	0.0242
2454.00	0.0239
2457.00	0.0242
2460.00	0.0242
2463.00	0.0240
2466.00	0.0237
2469.00	0.0237
2472.00	0.0239
2475.00	0.0242
2478.00	0.0238
2481.00	0.0242
2484.00	0.0232
2487.00	0.0230
2490.00	0.0234
2493.00	0.0228
2496.00	0.0233
2499.00	0.0231
2502.00	0.0237
2505.00	0.0245
2508.00	0.0247
2511.00	0.0250
2514.00	0.0250
2517.00	0.0254
2520.00	0.0257
2523.00	0.0255
2526.00	0.0250
2529.00	0.0251
2532.00	0.0253
2535.00	0.0253
2538.00	0.0254
2541.00	0.0259
2544.00	0.0260
2547.00	0.0248
2550.00	0.0238
2553.00	0.0236
2556.00	0.0236
2559.00	0.0246
2562.00	0.0267
2565.00	0.0271
2568.00	0.0265
2571.00	0.0256
2574.00	0.0255
2577.00	0.0250
2580.00	0.0246
2583.00	0.0248
2586.00	0.0249
2589.00	0.0255
2592.00	0.0263
2595.00	0.0259
2598.00	0.0244
2601.00	0.0251
2604.00	0.0261
2607.00	0.0261
2610.00	0.0262
2613.00	0.0262
2616.00	0.0263
2619.00	0.0262
2622.00	0.0252
2625.00	0.0255
2628.00	0.0259
2631.00	0.0264
2634.00	0.0266
2637.00	0.0271
2640.00	0.0273
2643.00	0.0266
2646.00	0.0264
2649.00	0.0265
2652.00	0.0262
2655.00	0.0251
2658.00	0.0245
2661.00	0.0253
2664.00	0.0274
2667.00	0.0319
2670.00	0.0361
2673.00	0.0401
2676.00	0.0438
2679.00	0.0460
2682.00	0.0512
2685.00	0.0579
2688.00	0.0665
2691.00	0.0765
2694.00	0.0899
2697.00	0.1048
2700.00	0.1191
2703.00	0.1301
2706.00	0.1417
2709.00	0.1488
2712.00	0.1544
2715.00	0.1570
2718.00	0.1534
2721.00	0.1541
2724.00	0.1515
2727.00	0.1481
2730.00	0.1421
2733.00	0.1375
2736.00	0.1285
2739.00	0.1283
2742.00	0.1263
2745.00	0.1251
2748.00	0.1233
2751.00	0.1188
2754.00	0.1138
2757.00	0.1067
2760.00	0.1025
2763.00	0.0968
2766.00	0.0929
2769.00	0.0896
2772.00	0.0866
2775.00	0.0830
2778.00	0.0803
2781.00	0.0758
2784.00	0.0720
2787.00	0.0690
2790.00	0.0665
2793.00	0.0645
2796.00	0.0623
2799.00	0.0592
2802.00	0.0558
2805.00	0.0534
2808.00	0.0515
2811.00	0.0491
2814.00	0.0467
2817.00	0.0447
2820.00	0.0426
2823.00	0.0415
2826.00	0.0404
2829.00	0.0395
2832.00	0.0381
2835.00	0.0370
2838.00	0.0356
2841.00	0.0345
2844.00	0.0333
2847.00	0.0323
2850.00	0.0316
2853.00	0.0309
2856.00	0.0305
2859.00	0.0297
2862.00	0.0293
2865.00	0.0284
2868.00	0.0282
2871.00	0.0279
2874.00	0.0274
2877.00	0.0269
2880.00	0.0267
2883.00	0.0263
2886.00	0.0261
2889.00	0.0257
2892.00	0.0250
2895.00	0.0248
2898.00	0.0243
2901.00	0.0242
2904.00	0.0240
2907.00	0.0240
2910.00	0.0238
2913.00	0.0234
2916.00	0.0235
2919.00	0.0229
2922.00	0.0226
2925.00	0.0223
2928.00	0.0220
2931.00	0.0221
2934.00	0.0219
2937.00	0.0216
2940.00	0.0213
2943.00	0.0215
2946.00	0.0217
2949.00	0.0215
2952.00	0.0214
2955.00	0.0210
2958.00	0.0208
2961.00	0.0210
2964.00	0.0209
2967.00	0.0210
2970.00	0.0211
2973.00	0.0209
2976.00	0.0207
2979.00	0.0209
2982.00	0.0208
2985.00	0.0208
2988.00	0.0209
2991.00	0.0207
2994.00	0.0208
2997.00	0.0216
3000.00	0.0219
3003.00	0.0222
3006.00	0.0228
3009.00	0.0228
3012.00	0.0227
3015.00	0.0226
3018.00	0.0224
3021.00	0.0224
3024.00	0.0223
3027.00	0.0223
3030.00	0.0222
3033.00	0.0221
3036.00	0.0220
3039.00	0.0222
3042.00	0.0222
3045.00	0.0221
3048.00	0.0221
3051.00	0.0225
3054.00	0.0227
3057.00	0.0225
3060.00	0.0229
3063.00	0.0228
3066.00	0.0230
3069.00	0.0225
3072.00	0.0223
3075.00	0.0220
3078.00	0.0219
3081.00	0.0218
3084.00	0.0217
3087.00	0.0217
3090.00	0.0219
3093.00	0.0221
3096.00	0.0216
3099.00	0.0213
3102.00	0.0213
3105.00	0.0212
3108.00	0.0211
3111.00	0.0211
3114.00	0.0214
3117.00	0.0217
3120.00	0.0214
3123.00	0.0211
3126.00	0.0211
3129.00	0.0210
3132.00	0.0205
3135.00	0.0206
3138.00	0.0208
3141.00	0.0209
3144.00	0.0212
3147.00	0.0210
3150.00	0.0209
3153.00	0.0210
3156.00	0.0204
3159.00	0.0206
3162.00	0.0201
3165.00	0.0203
3168.00	0.0206
3171.00	0.0209
3174.00	0.0221
3177.00	0.0228
3180.00	0.0223
3183.00	0.0224
3186.00	0.0224
3189.00	0.0225
3192.00	0.0216
3195.00	0.0208
3198.00	0.0219
3201.00	0.0213
3204.00	0.0203
3207.00	0.0194
3210.00	0.0210
3213.00	0.0220
3216.00	0.0214
3219.00	0.0222
3222.00	0.0231
3225.00	0.0229
3228.00	0.0225
3231.00	0.0224
3234.00	0.0217
3237.00	0.0215
3240.00	0.0200
3243.00	0.0205
3246.00	0.0202
3249.00	0.0188
3252.00	0.0198
3255.00	0.0203
3258.00	0.0209
3261.00	0.0196
3264.00	0.0191
3267.00	0.0188
3270.00	0.0181
3273.00	0.0134
3276.00	0.0128
3279.00	0.0142
3282.00	0.0175
3285.00	0.0171
3288.00	0.0169
3291.00	0.0210
3294.00	0.0252
3297.00	0.0264
3300.00	0.0262