File: Tol_UV_VIS_0mM.txt
"20-30mM-1_Toluene0mM - RawData"
"Wavelength nm."	"Abs."
300.00	0.1095
303.00	0.1081
306.00	0.1047
309.00	0.1035
312.00	0.1018
315.00	0.1013
318.00	0.1024
321.00	0.1029
324.00	0.1041
327.00	0.1053
330.00	0.1066
333.00	0.1071
336.00	0.1099
339.00	0.1138
342.00	0.1172
345.00	0.1208
348.00	0.1247
351.00	0.1284
354.00	0.1323
357.00	0.1362
360.00	0.1395
363.00	0.1423
366.00	0.1478
369.00	0.1535
372.00	0.1596
375.00	0.1640
378.00	0.1678
381.00	0.1730
384.00	0.1781
387.00	0.1850
390.00	0.1915
393.00	0.1983
396.00	0.2057
399.00	0.2130
402.00	0.2208
405.00	0.2292
408.00	0.2375
411.00	0.2460
414.00	0.2552
417.00	0.2655
420.00	0.2762
423.00	0.2871
426.00	0.2984
429.00	0.3108
432.00	0.3222
435.00	0.3350
438.00	0.3485
441.00	0.3625
444.00	0.3778
447.00	0.3938
450.00	0.4092
453.00	0.4254
456.00	0.4425
459.00	0.4594
462.00	0.4769
465.00	0.4937
468.00	0.5098
471.00	0.5249
474.00	0.5399
477.00	0.5557
480.00	0.5714
483.00	0.5859
486.00	0.5990
489.00	0.6110
492.00	0.6222
495.00	0.6328
498.00	0.6428
501.00	0.6522
504.00	0.6606
507.00	0.6677
510.00	0.6729
513.00	0.6765
516.00	0.6778
519.00	0.6769
522.00	0.6744
525.00	0.6696
528.00	0.6638
531.00	0.6595
534.00	0.6531
537.00	0.6465
540.00	0.6410
543.00	0.6350
546.00	0.6283
549.00	0.6200
552.00	0.6098
555.00	0.5969
558.00	0.5810
561.00	0.5624
564.00	0.5428
567.00	0.5208
570.00	0.4981
573.00	0.4765
576.00	0.4555
579.00	0.4369
582.00	0.4205
585.00	0.4063
588.00	0.3946
591.00	0.3845
594.00	0.3751
597.00	0.3652
600.00	0.3548
603.00	0.3428
606.00	0.3275
609.00	0.3097
612.00	0.2901
615.00	0.2687
618.00	0.2479
621.00	0.2264
624.00	0.2064
627.00	0.1880
630.00	0.1710
633.00	0.1556
636.00	0.1430
639.00	0.1330
642.00	0.1236
645.00	0.1164
648.00	0.1108
651.00	0.1068
654.00	0.1024
657.00	0.0985
660.00	0.0961
663.00	0.0941
666.00	0.0920
669.00	0.0903
672.00	0.0895
675.00	0.0882
678.00	0.0865
681.00	0.0853
684.00	0.0851
687.00	0.0844
690.00	0.0829
693.00	0.0827
696.00	0.0821
699.00	0.0814
702.00	0.0804
705.00	0.0809
708.00	0.0809
711.00	0.0804
714.00	0.0796
717.00	0.0787
720.00	0.0780
723.00	0.0785
726.00	0.0762
729.00	0.0756
732.00	0.0758
735.00	0.0753
738.00	0.0746
741.00	0.0746
744.00	0.0736
747.00	0.0731
750.00	0.0737
753.00	0.0731
756.00	0.0731
759.00	0.0726
762.00	0.0720
765.00	0.0720
768.00	0.0721
771.00	0.0712
774.00	0.0709
777.00	0.0715
780.00	0.0704
783.00	0.0691
786.00	0.0692
789.00	0.0684
792.00	0.0665
795.00	0.0645
798.00	0.0615
801.00	0.0587
804.00	0.0564
807.00	0.0535
810.00	0.0516
813.00	0.0500
816.00	0.0495
819.00	0.0501
822.00	0.0495
825.00	0.0486
828.00	0.0482
831.00	0.0484
834.00	0.0483
837.00	0.0482
840.00	0.0480
843.00	0.0477
846.00	0.0478
849.00	0.0472
852.00	0.0470
855.00	0.0470
858.00	0.0464
861.00	0.0462
864.00	0.0462
867.00	0.0456
870.00	0.0453
873.00	0.0450
876.00	0.0454
879.00	0.0453
882.00	0.0451
885.00	0.0443
888.00	0.0441
891.00	0.0438
894.00	0.0434
897.00	0.0431
900.00	0.0428
903.00	0.0425
906.00	0.0428
909.00	0.0425
912.00	0.0419
915.00	0.0418
918.00	0.0420
921.00	0.0421
924.00	0.0412
927.00	0.0407
930.00	0.0407
933.00	0.0407
936.00	0.0406
939.00	0.0404
942.00	0.0402
945.00	0.0402
948.00	0.0402
951.00	0.0400
954.00	0.0397
957.00	0.0396
960.00	0.0393
963.00	0.0393
966.00	0.0392
969.00	0.0388
972.00	0.0388
975.00	0.0385
978.00	0.0384
981.00	0.0385
984.00	0.0383
987.00	0.0383
990.00	0.0383
993.00	0.0380
996.00	0.0382
999.00	0.0380
1002.00	0.0374
1005.00	0.0374
1008.00	0.0375
1011.00	0.0372
1014.00	0.0351
1017.00	0.0350
1020.00	0.0366
1023.00	0.0365
1026.00	0.0360
1029.00	0.0357
1032.00	0.0359
1035.00	0.0358
1038.00	0.0350
1041.00	0.0352
1044.00	0.0353
1047.00	0.0346
1050.00	0.0343
1053.00	0.0346
1056.00	0.0341
1059.00	0.0346
1062.00	0.0345
1065.00	0.0338
1068.00	0.0341
1071.00	0.0337
1074.00	0.0332
1077.00	0.0333
1080.00	0.0331
1083.00	0.0328
1086.00	0.0326
1089.00	0.0329
1092.00	0.0329
1095.00	0.0325
1098.00	0.0325
1101.00	0.0328
1104.00	0.0322
1107.00	0.0321
1110.00	0.0319
1113.00	0.0318
1116.00	0.0315
1119.00	0.0311
1122.00	0.0313
1125.00	0.0311
1128.00	0.0307
1131.00	0.0308
1134.00	0.0308
1137.00	0.0307
1140.00	0.0303
1143.00	0.0303
1146.00	0.0303
1149.00	0.0303
1152.00	0.0305
1155.00	0.0305
1158.00	0.0305
1161.00	0.0304
1164.00	0.0301
1167.00	0.0300
1170.00	0.0301
1173.00	0.0301
1176.00	0.0297
1179.00	0.0296
1182.00	0.0295
1185.00	0.0294
1188.00	0.0294
1191.00	0.0293
1194.00	0.0294
1197.00	0.0296
1200.00	0.0286
1203.00	0.0288
1206.00	0.0294
1209.00	0.0289
1212.00	0.0288
1215.00	0.0286
1218.00	0.0286
1221.00	0.0284
1224.00	0.0284
1227.00	0.0281
1230.00	0.0282
1233.00	0.0278
1236.00	0.0279
1239.00	0.0278
1242.00	0.0275
1245.00	0.0275
1248.00	0.0276
1251.00	0.0276
1254.00	0.0274
1257.00	0.0271
1260.00	0.0270
1263.00	0.0270
1266.00	0.0271
1269.00	0.0268
1272.00	0.0266
1275.00	0.0266
1278.00	0.0261
1281.00	0.0259
1284.00	0.0263
1287.00	0.0260
1290.00	0.0258
1293.00	0.0257
1296.00	0.0256
1299.00	0.0255
1302.00	0.0254
1305.00	0.0253
1308.00	0.0252
1311.00	0.0250
1314.00	0.0246
1317.00	0.0246
1320.00	0.0244
1323.00	0.0237
1326.00	0.0241
1329.00	0.0241
1332.00	0.0238
1335.00	0.0236
1338.00	0.0237
1341.00	0.0238
1344.00	0.0237
1347.00	0.0234
1350.00	0.0229
1353.00	0.0232
1356.00	0.0235
1359.00	0.0234
1362.00	0.0240
1365.00	0.0242
1368.00	0.0234
1371.00	0.0234
1374.00	0.0246
1377.00	0.0248
1380.00	0.0247
1383.00	0.0246
1386.00	0.0249
1389.00	0.0246
1392.00	0.0244
1395.00	0.0244
1398.00	0.0248
1401.00	0.0242
1404.00	0.0236
1407.00	0.0236
1410.00	0.0236
1413.00	0.0231
1416.00	0.0228
1419.00	0.0227
1422.00	0.0232
1425.00	0.0229
1428.00	0.0227
1431.00	0.0224
1434.00	0.0226
1437.00	0.0226
1440.00	0.0226
1443.00	0.0221
1446.00	0.0205
1449.00	0.0210
1452.00	0.0218
1455.00	0.0214
1458.00	0.0217
1461.00	0.0208
1464.00	0.0210
1467.00	0.0212
1470.00	0.0210
1473.00	0.0213
1476.00	0.0210
1479.00	0.0207
1482.00	0.0203
1485.00	0.0205
1488.00	0.0205
1491.00	0.0203
1494.00	0.0198
1497.00	0.0207
1500.00	0.0201
1503.00	0.0199
1506.00	0.0194
1509.00	0.0200
1512.00	0.0208
1515.00	0.0206
1518.00	0.0203
1521.00	0.0203
1524.00	0.0203
1527.00	0.0204
1530.00	0.0201
1533.00	0.0196
1536.00	0.0204
1539.00	0.0200
1542.00	0.0192
1545.00	0.0196
1548.00	0.0197
1551.00	0.0198
1554.00	0.0195
1557.00	0.0191
1560.00	0.0193
1563.00	0.0194
1566.00	0.0194
1569.00	0.0193
1572.00	0.0192
1575.00	0.0195
1578.00	0.0194
1581.00	0.0193
1584.00	0.0194
1587.00	0.0194
1590.00	0.0193
1593.00	0.0193
1596.00	0.0193
1599.00	0.0192
1602.00	0.0191
1605.00	0.0192
1608.00	0.0190
1611.00	0.0189
1614.00	0.0189
1617.00	0.0193
1620.00	0.0189
1623.00	0.0188
1626.00	0.0195
1629.00	0.0198
1632.00	0.0190
1635.00	0.0184
1638.00	0.0184
1641.00	0.0184
1644.00	0.0180
1647.00	0.0168
1650.00	0.0158
1653.00	0.0147
1656.00	0.0136
1659.00	0.0131
1662.00	0.0135
1665.00	0.0131
1668.00	0.0126
1671.00	0.0128
1674.00	0.0128
1677.00	0.0131
1680.00	0.0120
1683.00	0.0125
1686.00	0.0126
1689.00	0.0127
1692.00	0.0118
1695.00	0.0116
1698.00	0.0122
1701.00	0.0118
1704.00	0.0115
1707.00	0.0113
1710.00	0.0117
1713.00	0.0123
1716.00	0.0125
1719.00	0.0122
1722.00	0.0120
1725.00	0.0119
1728.00	0.0125
1731.00	0.0125
1734.00	0.0122
1737.00	0.0124
1740.00	0.0122
1743.00	0.0123
1746.00	0.0123
1749.00	0.0121
1752.00	0.0120
1755.00	0.0123
1758.00	0.0125
1761.00	0.0120
1764.00	0.0122
1767.00	0.0123
1770.00	0.0122
1773.00	0.0119
1776.00	0.0119
1779.00	0.0117
1782.00	0.0119
1785.00	0.0122
1788.00	0.0126
1791.00	0.0122
1794.00	0.0121
1797.00	0.0126
1800.00	0.0122
1803.00	0.0120
1806.00	0.0119
1809.00	0.0119
1812.00	0.0122
1815.00	0.0115
1818.00	0.0115
1821.00	0.0116
1824.00	0.0116
1827.00	0.0121
1830.00	0.0125
1833.00	0.0128
1836.00	0.0122
1839.00	0.0120
1842.00	0.0122
1845.00	0.0118
1848.00	0.0113
1851.00	0.0107
1854.00	0.0114
1857.00	0.0118
1860.00	0.0118
1863.00	0.0118
1866.00	0.0117
1869.00	0.0123
1872.00	0.0120
1875.00	0.0115
1878.00	0.0113
1881.00	0.0105
1884.00	0.0104
1887.00	0.0108
1890.00	0.0110
1893.00	0.0108
1896.00	0.0108
1899.00	0.0116
1902.00	0.0122
1905.00	0.0120
1908.00	0.0112
1911.00	0.0107
1914.00	0.0110
1917.00	0.0117
1920.00	0.0113
1923.00	0.0110
1926.00	0.0117
1929.00	0.0115
1932.00	0.0108
1935.00	0.0108
1938.00	0.0115
1941.00	0.0117
1944.00	0.0111
1947.00	0.0113
1950.00	0.0114
1953.00	0.0107
1956.00	0.0109
1959.00	0.0112
1962.00	0.0115
1965.00	0.0113
1968.00	0.0113
1971.00	0.0114
1974.00	0.0108
1977.00	0.0109
1980.00	0.0115
1983.00	0.0110
1986.00	0.0112
1989.00	0.0111
1992.00	0.0114
1995.00	0.0110
1998.00	0.0107
2001.00	0.0118
2004.00	0.0119
2007.00	0.0116
2010.00	0.0117
2013.00	0.0112
2016.00	0.0107
2019.00	0.0107
2022.00	0.0108
2025.00	0.0107
2028.00	0.0104
2031.00	0.0108
2034.00	0.0112
2037.00	0.0112
2040.00	0.0109
2043.00	0.0103
2046.00	0.0110
2049.00	0.0108
2052.00	0.0102
2055.00	0.0108
2058.00	0.0109
2061.00	0.0109
2064.00	0.0111
2067.00	0.0108
2070.00	0.0110
2073.00	0.0106
2076.00	0.0104
2079.00	0.0106
2082.00	0.0102
2085.00	0.0109
2088.00	0.0112
2091.00	0.0101
2094.00	0.0098
2097.00	0.0095
2100.00	0.0100
2103.00	0.0103
2106.00	0.0093
2109.00	0.0099
2112.00	0.0106
2115.00	0.0101
2118.00	0.0099
2121.00	0.0097
2124.00	0.0099
2127.00	0.0103
2130.00	0.0104
2133.00	0.0105
2136.00	0.0104
2139.00	0.0102
2142.00	0.0105
2145.00	0.0106
2148.00	0.0108
2151.00	0.0103
2154.00	0.0096
2157.00	0.0098
2160.00	0.0095
2163.00	0.0097
2166.00	0.0111
2169.00	0.0112
2172.00	0.0108
2175.00	0.0108
2178.00	0.0109
2181.00	0.0112
2184.00	0.0118
2187.00	0.0113
2190.00	0.0121
2193.00	0.0126
2196.00	0.0128
2199.00	0.0141
2202.00	0.0149
2205.00	0.0145
2208.00	0.0142
2211.00	0.0149
2214.00	0.0149
2217.00	0.0144
2220.00	0.0149
2223.00	0.0138
2226.00	0.0136
2229.00	0.0136
2232.00	0.0137
2235.00	0.0142
2238.00	0.0135
2241.00	0.0140
2244.00	0.0142
2247.00	0.0141
2250.00	0.0143
2253.00	0.0141
2256.00	0.0136
2259.00	0.0136
2262.00	0.0140
2265.00	0.0136
2268.00	0.0128
2271.00	0.0127
2274.00	0.0115
2277.00	0.0116
2280.00	0.0116
2283.00	0.0110
2286.00	0.0114
2289.00	0.0114
2292.00	0.0108
2295.00	0.0111
2298.00	0.0112
2301.00	0.0107
2304.00	0.0105
2307.00	0.0102
2310.00	0.0103
2313.00	0.0100
2316.00	0.0101
2319.00	0.0096
2322.00	0.0103
2325.00	0.0107
2328.00	0.0097
2331.00	0.0098
2334.00	0.0105
2337.00	0.0101
2340.00	0.0097
2343.00	0.0097
2346.00	0.0097
2349.00	0.0092
2352.00	0.0095
2355.00	0.0095
2358.00	0.0097
2361.00	0.0095
2364.00	0.0093
2367.00	0.0092
2370.00	0.0096
2373.00	0.0096
2376.00	0.0095
2379.00	0.0098
2382.00	0.0091
2385.00	0.0090
2388.00	0.0096
2391.00	0.0095
2394.00	0.0097
2397.00	0.0096
2400.00	0.0106
2403.00	0.0098
2406.00	0.0090
2409.00	0.0100
2412.00	0.0100
2415.00	0.0098
2418.00	0.0106
2421.00	0.0100
2424.00	0.0087
2427.00	0.0089
2430.00	0.0098
2433.00	0.0093
2436.00	0.0098
2439.00	0.0107
2442.00	0.0108
2445.00	0.0105
2448.00	0.0101
2451.00	0.0095
2454.00	0.0096
2457.00	0.0098
2460.00	0.0099
2463.00	0.0095
2466.00	0.0100
2469.00	0.0103
2472.00	0.0104
2475.00	0.0104
2478.00	0.0105
2481.00	0.0105
2484.00	0.0098
2487.00	0.0098
2490.00	0.0098
2493.00	0.0095
2496.00	0.0104
2499.00	0.0102
2502.00	0.0109
2505.00	0.0116
2508.00	0.0117
2511.00	0.0122
2514.00	0.0120
2517.00	0.0120
2520.00	0.0125
2523.00	0.0128
2526.00	0.0126
2529.00	0.0128
2532.00	0.0131
2535.00	0.0130
2538.00	0.0130
2541.00	0.0135
2544.00	0.0142
2547.00	0.0138
2550.00	0.0132
2553.00	0.0128
2556.00	0.0124
2559.00	0.0126
2562.00	0.0145
2565.00	0.0152
2568.00	0.0147
2571.00	0.0143
2574.00	0.0147
2577.00	0.0148
2580.00	0.0139
2583.00	0.0140
2586.00	0.0147
2589.00	0.0155
2592.00	0.0159
2595.00	0.0147
2598.00	0.0132
2601.00	0.0127
2604.00	0.0127
2607.00	0.0136
2610.00	0.0160
2613.00	0.0169
2616.00	0.0171
2619.00	0.0169
2622.00	0.0159
2625.00	0.0160
2628.00	0.0168
2631.00	0.0181
2634.00	0.0187
2637.00	0.0193
2640.00	0.0193
2643.00	0.0191
2646.00	0.0194
2649.00	0.0198
2652.00	0.0195
2655.00	0.0187
2658.00	0.0185
2661.00	0.0186
2664.00	0.0190
2667.00	0.0243
2670.00	0.0321
2673.00	0.0387
2676.00	0.0435
2679.00	0.0490
2682.00	0.0585
2685.00	0.0693
2688.00	0.0844
2691.00	0.1050
2694.00	0.1355
2697.00	0.1658
2700.00	0.1864
2703.00	0.2038
2706.00	0.2215
2709.00	0.2363
2712.00	0.2488
2715.00	0.2574
2718.00	0.2636
2721.00	0.2696
2724.00	0.2699
2727.00	0.2708
2730.00	0.2665
2733.00	0.2593
2736.00	0.2513
2739.00	0.2407
2742.00	0.2313
2745.00	0.2260
2748.00	0.2204
2751.00	0.2164
2754.00	0.2067
2757.00	0.1970
2760.00	0.1861
2763.00	0.1767
2766.00	0.1663
2769.00	0.1594
2772.00	0.1522
2775.00	0.1448
2778.00	0.1382
2781.00	0.1313
2784.00	0.1248
2787.00	0.1188
2790.00	0.1125
2793.00	0.1076
2796.00	0.1019
2799.00	0.0957
2802.00	0.0897
2805.00	0.0838
2808.00	0.0781
2811.00	0.0735
2814.00	0.0690
2817.00	0.0648
2820.00	0.0614
2823.00	0.0580
2826.00	0.0548
2829.00	0.0515
2832.00	0.0484
2835.00	0.0459
2838.00	0.0435
2841.00	0.0414
2844.00	0.0396
2847.00	0.0372
2850.00	0.0354
2853.00	0.0337
2856.00	0.0322
2859.00	0.0309
2862.00	0.0296
2865.00	0.0283
2868.00	0.0277
2871.00	0.0268
2874.00	0.0259
2877.00	0.0248
2880.00	0.0241
2883.00	0.0234
2886.00	0.0226
2889.00	0.0220
2892.00	0.0210
2895.00	0.0203
2898.00	0.0194
2901.00	0.0187
2904.00	0.0181
2907.00	0.0177
2910.00	0.0171
2913.00	0.0167
2916.00	0.0164
2919.00	0.0160
2922.00	0.0155
2925.00	0.0151
2928.00	0.0143
2931.00	0.0138
2934.00	0.0136
2937.00	0.0132
2940.00	0.0130
2943.00	0.0131
2946.00	0.0128
2949.00	0.0124
2952.00	0.0121
2955.00	0.0118
2958.00	0.0117
2961.00	0.0110
2964.00	0.0113
2967.00	0.0111
2970.00	0.0111
2973.00	0.0114
2976.00	0.0112
2979.00	0.0112
2982.00	0.0110
2985.00	0.0108
2988.00	0.0111
2991.00	0.0104
2994.00	0.0105
2997.00	0.0127
3000.00	0.0160
3003.00	0.0182
3006.00	0.0203
3009.00	0.0223
3012.00	0.0221
3015.00	0.0218
3018.00	0.0217
3021.00	0.0215
3024.00	0.0214
3027.00	0.0213
3030.00	0.0214
3033.00	0.0213
3036.00	0.0210
3039.00	0.0210
3042.00	0.0207
3045.00	0.0208
3048.00	0.0207
3051.00	0.0209
3054.00	0.0211
3057.00	0.0213
3060.00	0.0217
3063.00	0.0216
3066.00	0.0218
3069.00	0.0214
3072.00	0.0218
3075.00	0.0219
3078.00	0.0220
3081.00	0.0220
3084.00	0.0219
3087.00	0.0220
3090.00	0.0217
3093.00	0.0216
3096.00	0.0215
3099.00	0.0212
3102.00	0.0213
3105.00	0.0214
3108.00	0.0212
3111.00	0.0210
3114.00	0.0208
3117.00	0.0206
3120.00	0.0199
3123.00	0.0196
3126.00	0.0192
3129.00	0.0191
3132.00	0.0188
3135.00	0.0186
3138.00	0.0188
3141.00	0.0187
3144.00	0.0190
3147.00	0.0185
3150.00	0.0182
3153.00	0.0181
3156.00	0.0176
3159.00	0.0178
3162.00	0.0175
3165.00	0.0180
3168.00	0.0180
3171.00	0.0181
3174.00	0.0196
3177.00	0.0196
3180.00	0.0196
3183.00	0.0200
3186.00	0.0203
3189.00	0.0204
3192.00	0.0201
3195.00	0.0202
3198.00	0.0200
3201.00	0.0192
3204.00	0.0203
3207.00	0.0184
3210.00	0.0198
3213.00	0.0201
3216.00	0.0197
3219.00	0.0201
3222.00	0.0206
3225.00	0.0213
3228.00	0.0204
3231.00	0.0195
3234.00	0.0207
3237.00	0.0200
3240.00	0.0194
3243.00	0.0180
3246.00	0.0181
3249.00	0.0172
3252.00	0.0160
3255.00	0.0169
3258.00	0.0177
3261.00	0.0176
3264.00	0.0167
3267.00	0.0187
3270.00	0.0170
3273.00	0.0139
3276.00	0.0139
3279.00	0.0154
3282.00	0.0180
3285.00	0.0162
3288.00	0.0165
3291.00	0.0161
3294.00	0.0244
3297.00	0.0291
3300.00	0.0338