File: Tol_UV_VIS_20mM.txt
"20-30mM-1_Toluene20mM - RawData"
"Wavelength nm."	"Abs."
300.00	0.1367
303.00	0.1376
306.00	0.1377
309.00	0.1397
312.00	0.1417
315.00	0.1454
318.00	0.1510
321.00	0.1563
324.00	0.1613
327.00	0.1671
330.00	0.1727
333.00	0.1774
336.00	0.1845
339.00	0.1924
342.00	0.1989
345.00	0.2048
348.00	0.2105
351.00	0.2156
354.00	0.2208
357.00	0.2250
360.00	0.2293
363.00	0.2332
366.00	0.2395
369.00	0.2465
372.00	0.2534
375.00	0.2592
378.00	0.2655
381.00	0.2743
384.00	0.2842
387.00	0.2949
390.00	0.3049
393.00	0.3145
396.00	0.3233
399.00	0.3313
402.00	0.3401
405.00	0.3500
408.00	0.3596
411.00	0.3681
414.00	0.3744
417.00	0.3782
420.00	0.3787
423.00	0.3760
426.00	0.3715
429.00	0.3670
432.00	0.3638
435.00	0.3629
438.00	0.3636
441.00	0.3649
444.00	0.3675
447.00	0.3726
450.00	0.3774
453.00	0.3833
456.00	0.3901
459.00	0.3972
462.00	0.4040
465.00	0.4095
468.00	0.4143
471.00	0.4187
474.00	0.4231
477.00	0.4288
480.00	0.4343
483.00	0.4393
486.00	0.4429
489.00	0.4450
492.00	0.4476
495.00	0.4496
498.00	0.4503
501.00	0.4510
504.00	0.4509
507.00	0.4501
510.00	0.4480
513.00	0.4450
516.00	0.4413
519.00	0.4370
522.00	0.4328
525.00	0.4278
528.00	0.4225
531.00	0.4189
534.00	0.4132
537.00	0.4077
540.00	0.4017
543.00	0.3954
546.00	0.3896
549.00	0.3842
552.00	0.3788
555.00	0.3729
558.00	0.3673
561.00	0.3618
564.00	0.3562
567.00	0.3502
570.00	0.3438
573.00	0.3380
576.00	0.3312
579.00	0.3241
582.00	0.3178
585.00	0.3112
588.00	0.3044
591.00	0.2976
594.00	0.2911
597.00	0.2838
600.00	0.2770
603.00	0.2713
606.00	0.2649
609.00	0.2590
612.00	0.2542
615.00	0.2488
618.00	0.2451
621.00	0.2408
624.00	0.2381
627.00	0.2351
630.00	0.2329
633.00	0.2305
636.00	0.2283
639.00	0.2281
642.00	0.2268
645.00	0.2258
648.00	0.2258
651.00	0.2262
654.00	0.2263
657.00	0.2269
660.00	0.2272
663.00	0.2273
666.00	0.2271
669.00	0.2278
672.00	0.2311
675.00	0.2326
678.00	0.2334
681.00	0.2346
684.00	0.2365
687.00	0.2375
690.00	0.2379
693.00	0.2388
696.00	0.2395
699.00	0.2395
702.00	0.2403
705.00	0.2412
708.00	0.2414
711.00	0.2421
714.00	0.2429
717.00	0.2433
720.00	0.2437
723.00	0.2444
726.00	0.2440
729.00	0.2452
732.00	0.2472
735.00	0.2492
738.00	0.2506
741.00	0.2535
744.00	0.2555
747.00	0.2575
750.00	0.2596
753.00	0.2614
756.00	0.2636
759.00	0.2656
762.00	0.2665
765.00	0.2683
768.00	0.2693
771.00	0.2684
774.00	0.2672
777.00	0.2654
780.00	0.2628
783.00	0.2596
786.00	0.2583
789.00	0.2558
792.00	0.2526
795.00	0.2488
798.00	0.2440
801.00	0.2396
804.00	0.2364
807.00	0.2329
810.00	0.2306
813.00	0.2290
816.00	0.2274
819.00	0.2267
822.00	0.2269
825.00	0.2269
828.00	0.2278
831.00	0.2293
834.00	0.2308
837.00	0.2326
840.00	0.2351
843.00	0.2378
846.00	0.2408
849.00	0.2439
852.00	0.2462
855.00	0.2476
858.00	0.2481
861.00	0.2488
864.00	0.2494
867.00	0.2496
870.00	0.2496
873.00	0.2491
876.00	0.2478
879.00	0.2451
882.00	0.2416
885.00	0.2378
888.00	0.2331
891.00	0.2281
894.00	0.2235
897.00	0.2185
900.00	0.2142
903.00	0.2097
906.00	0.2058
909.00	0.2017
912.00	0.1972
915.00	0.1942
918.00	0.1907
921.00	0.1868
924.00	0.1829
927.00	0.1796
930.00	0.1765
933.00	0.1731
936.00	0.1701
939.00	0.1673
942.00	0.1644
945.00	0.1614
948.00	0.1585
951.00	0.1558
954.00	0.1529
957.00	0.1504
960.00	0.1478
963.00	0.1454
966.00	0.1428
969.00	0.1401
972.00	0.1379
975.00	0.1351
978.00	0.1326
981.00	0.1305
984.00	0.1282
987.00	0.1261
990.00	0.1236
993.00	0.1210
996.00	0.1189
999.00	0.1169
1002.00	0.1143
1005.00	0.1120
1008.00	0.1101
1011.00	0.1080
1014.00	0.1061
1017.00	0.1038
1020.00	0.1019
1023.00	0.1004
1026.00	0.0982
1029.00	0.0962
1032.00	0.0948
1035.00	0.0933
1038.00	0.0913
1041.00	0.0896
1044.00	0.0882
1047.00	0.0866
1050.00	0.0845
1053.00	0.0832
1056.00	0.0821
1059.00	0.0813
1062.00	0.0797
1065.00	0.0782
1068.00	0.0771
1071.00	0.0757
1074.00	0.0740
1077.00	0.0733
1080.00	0.0721
1083.00	0.0709
1086.00	0.0699
1089.00	0.0692
1092.00	0.0684
1095.00	0.0672
1098.00	0.0668
1101.00	0.0664
1104.00	0.0650
1107.00	0.0641
1110.00	0.0636
1113.00	0.0629
1116.00	0.0622
1119.00	0.0615
1122.00	0.0615
1125.00	0.0610
1128.00	0.0602
1131.00	0.0598
1134.00	0.0595
1137.00	0.0590
1140.00	0.0582
1143.00	0.0581
1146.00	0.0578
1149.00	0.0580
1152.00	0.0577
1155.00	0.0572
1158.00	0.0570
1161.00	0.0573
1164.00	0.0567
1167.00	0.0565
1170.00	0.0569
1173.00	0.0564
1176.00	0.0560
1179.00	0.0561
1182.00	0.0562
1185.00	0.0563
1188.00	0.0564
1191.00	0.0562
1194.00	0.0563
1197.00	0.0565
1200.00	0.0558
1203.00	0.0560
1206.00	0.0564
1209.00	0.0563
1212.00	0.0565
1215.00	0.0565
1218.00	0.0567
1221.00	0.0568
1224.00	0.0572
1227.00	0.0574
1230.00	0.0576
1233.00	0.0571
1236.00	0.0570
1239.00	0.0581
1242.00	0.0581
1245.00	0.0585
1248.00	0.0589
1251.00	0.0589
1254.00	0.0591
1257.00	0.0592
1260.00	0.0599
1263.00	0.0605
1266.00	0.0605
1269.00	0.0608
1272.00	0.0613
1275.00	0.0618
1278.00	0.0624
1281.00	0.0624
1284.00	0.0628
1287.00	0.0629
1290.00	0.0632
1293.00	0.0638
1296.00	0.0640
1299.00	0.0649
1302.00	0.0652
1305.00	0.0656
1308.00	0.0657
1311.00	0.0663
1314.00	0.0665
1317.00	0.0671
1320.00	0.0674
1323.00	0.0682
1326.00	0.0687
1329.00	0.0690
1332.00	0.0695
1335.00	0.0701
1338.00	0.0706
1341.00	0.0713
1344.00	0.0723
1347.00	0.0730
1350.00	0.0733
1353.00	0.0740
1356.00	0.0749
1359.00	0.0757
1362.00	0.0764
1365.00	0.0774
1368.00	0.0780
1371.00	0.0788
1374.00	0.0797
1377.00	0.0805
1380.00	0.0812
1383.00	0.0819
1386.00	0.0831
1389.00	0.0841
1392.00	0.0849
1395.00	0.0854
1398.00	0.0865
1401.00	0.0874
1404.00	0.0882
1407.00	0.0892
1410.00	0.0902
1413.00	0.0908
1416.00	0.0912
1419.00	0.0924
1422.00	0.0941
1425.00	0.0948
1428.00	0.0957
1431.00	0.0965
1434.00	0.0969
1437.00	0.0988
1440.00	0.0996
1443.00	0.1003
1446.00	0.1013
1449.00	0.1018
1452.00	0.1036
1455.00	0.1043
1458.00	0.1055
1461.00	0.1064
1464.00	0.1074
1467.00	0.1082
1470.00	0.1096
1473.00	0.1112
1476.00	0.1118
1479.00	0.1115
1482.00	0.1128
1485.00	0.1151
1488.00	0.1158
1491.00	0.1166
1494.00	0.1178
1497.00	0.1193
1500.00	0.1204
1503.00	0.1214
1506.00	0.1226
1509.00	0.1239
1512.00	0.1248
1515.00	0.1263
1518.00	0.1276
1521.00	0.1288
1524.00	0.1297
1527.00	0.1308
1530.00	0.1319
1533.00	0.1332
1536.00	0.1343
1539.00	0.1352
1542.00	0.1366
1545.00	0.1380
1548.00	0.1388
1551.00	0.1399
1554.00	0.1411
1557.00	0.1420
1560.00	0.1435
1563.00	0.1447
1566.00	0.1460
1569.00	0.1472
1572.00	0.1480
1575.00	0.1496
1578.00	0.1513
1581.00	0.1523
1584.00	0.1532
1587.00	0.1545
1590.00	0.1559
1593.00	0.1569
1596.00	0.1584
1599.00	0.1596
1602.00	0.1606
1605.00	0.1616
1608.00	0.1630
1611.00	0.1643
1614.00	0.1656
1617.00	0.1668
1620.00	0.1679
1623.00	0.1687
1626.00	0.1704
1629.00	0.1715
1632.00	0.1714
1635.00	0.1722
1638.00	0.1740
1641.00	0.1746
1644.00	0.1754
1647.00	0.1752
1650.00	0.1752
1653.00	0.1750
1656.00	0.1749
1659.00	0.1752
1662.00	0.1764
1665.00	0.1768
1668.00	0.1774
1671.00	0.1785
1674.00	0.1798
1677.00	0.1811
1680.00	0.1815
1683.00	0.1826
1686.00	0.1838
1689.00	0.1845
1692.00	0.1848
1695.00	0.1856
1698.00	0.1870
1701.00	0.1878
1704.00	0.1881
1707.00	0.1890
1710.00	0.1903
1713.00	0.1916
1716.00	0.1929
1719.00	0.1931
1722.00	0.1938
1725.00	0.1944
1728.00	0.1951
1731.00	0.1961
1734.00	0.1968
1737.00	0.1980
1740.00	0.1988
1743.00	0.1997
1746.00	0.2004
1749.00	0.2010
1752.00	0.2022
1755.00	0.2033
1758.00	0.2040
1761.00	0.2043
1764.00	0.2051
1767.00	0.2060
1770.00	0.2070
1773.00	0.2076
1776.00	0.2083
1779.00	0.2087
1782.00	0.2099
1785.00	0.2112
1788.00	0.2117
1791.00	0.2118
1794.00	0.2126
1797.00	0.2138
1800.00	0.2141
1803.00	0.2148
1806.00	0.2158
1809.00	0.2166
1812.00	0.2171
1815.00	0.2171
1818.00	0.2174
1821.00	0.2182
1824.00	0.2190
1827.00	0.2200
1830.00	0.2205
1833.00	0.2212
1836.00	0.2222
1839.00	0.2227
1842.00	0.2224
1845.00	0.2225
1848.00	0.2225
1851.00	0.2226
1854.00	0.2238
1857.00	0.2253
1860.00	0.2260
1863.00	0.2262
1866.00	0.2261
1869.00	0.2262
1872.00	0.2269
1875.00	0.2274
1878.00	0.2278
1881.00	0.2281
1884.00	0.2284
1887.00	0.2281
1890.00	0.2285
1893.00	0.2293
1896.00	0.2297
1899.00	0.2311
1902.00	0.2326
1905.00	0.2337
1908.00	0.2334
1911.00	0.2330
1914.00	0.2324
1917.00	0.2323
1920.00	0.2326
1923.00	0.2335
1926.00	0.2343
1929.00	0.2343
1932.00	0.2345
1935.00	0.2352
1938.00	0.2358
1941.00	0.2364
1944.00	0.2362
1947.00	0.2361
1950.00	0.2359
1953.00	0.2360
1956.00	0.2369
1959.00	0.2370
1962.00	0.2372
1965.00	0.2373
1968.00	0.2382
1971.00	0.2387
1974.00	0.2384
1977.00	0.2384
1980.00	0.2391
1983.00	0.2389
1986.00	0.2388
1989.00	0.2394
1992.00	0.2402
1995.00	0.2402
1998.00	0.2404
2001.00	0.2413
2004.00	0.2414
2007.00	0.2409
2010.00	0.2413
2013.00	0.2417
2016.00	0.2416
2019.00	0.2415
2022.00	0.2413
2025.00	0.2414
2028.00	0.2413
2031.00	0.2421
2034.00	0.2423
2037.00	0.2427
2040.00	0.2422
2043.00	0.2420
2046.00	0.2428
2049.00	0.2430
2052.00	0.2437
2055.00	0.2445
2058.00	0.2444
2061.00	0.2444
2064.00	0.2445
2067.00	0.2444
2070.00	0.2447
2073.00	0.2445
2076.00	0.2446
2079.00	0.2448
2082.00	0.2450
2085.00	0.2455
2088.00	0.2458
2091.00	0.2454
2094.00	0.2453
2097.00	0.2448
2100.00	0.2455
2103.00	0.2451
2106.00	0.2447
2109.00	0.2448
2112.00	0.2452
2115.00	0.2454
2118.00	0.2456
2121.00	0.2453
2124.00	0.2455
2127.00	0.2455
2130.00	0.2450
2133.00	0.2452
2136.00	0.2456
2139.00	0.2452
2142.00	0.2450
2145.00	0.2453
2148.00	0.2453
2151.00	0.2441
2154.00	0.2442
2157.00	0.2445
2160.00	0.2445
2163.00	0.2444
2166.00	0.2455
2169.00	0.2452
2172.00	0.2447
2175.00	0.2447
2178.00	0.2446
2181.00	0.2447
2184.00	0.2452
2187.00	0.2444
2190.00	0.2450
2193.00	0.2443
2196.00	0.2434
2199.00	0.2446
2202.00	0.2448
2205.00	0.2445
2208.00	0.2437
2211.00	0.2438
2214.00	0.2434
2217.00	0.2436
2220.00	0.2437
2223.00	0.2425
2226.00	0.2425
2229.00	0.2425
2232.00	0.2422
2235.00	0.2423
2238.00	0.2419
2241.00	0.2422
2244.00	0.2427
2247.00	0.2419
2250.00	0.2413
2253.00	0.2414
2256.00	0.2411
2259.00	0.2414
2262.00	0.2413
2265.00	0.2415
2268.00	0.2419
2271.00	0.2415
2274.00	0.2412
2277.00	0.2412
2280.00	0.2406
2283.00	0.2401
2286.00	0.2400
2289.00	0.2402
2292.00	0.2396
2295.00	0.2403
2298.00	0.2402
2301.00	0.2398
2304.00	0.2397
2307.00	0.2397
2310.00	0.2393
2313.00	0.2387
2316.00	0.2385
2319.00	0.2386
2322.00	0.2386
2325.00	0.2382
2328.00	0.2377
2331.00	0.2377
2334.00	0.2379
2337.00	0.2374
2340.00	0.2369
2343.00	0.2371
2346.00	0.2367
2349.00	0.2362
2352.00	0.2369
2355.00	0.2371
2358.00	0.2368
2361.00	0.2366
2364.00	0.2361
2367.00	0.2364
2370.00	0.2364
2373.00	0.2358
2376.00	0.2346
2379.00	0.2347
2382.00	0.2344
2385.00	0.2344
2388.00	0.2347
2391.00	0.2345
2394.00	0.2331
2397.00	0.2343
2400.00	0.2347
2403.00	0.2334
2406.00	0.2331
2409.00	0.2336
2412.00	0.2333
2415.00	0.2330
2418.00	0.2328
2421.00	0.2321
2424.00	0.2315
2427.00	0.2313
2430.00	0.2310
2433.00	0.2305
2436.00	0.2301
2439.00	0.2309
2442.00	0.2315
2445.00	0.2307
2448.00	0.2300
2451.00	0.2307
2454.00	0.2311
2457.00	0.2297
2460.00	0.2301
2463.00	0.2298
2466.00	0.2283
2469.00	0.2285
2472.00	0.2291
2475.00	0.2288
2478.00	0.2280
2481.00	0.2270
2484.00	0.2259
2487.00	0.2269
2490.00	0.2279
2493.00	0.2266
2496.00	0.2271
2499.00	0.2258
2502.00	0.2248
2505.00	0.2244
2508.00	0.2245
2511.00	0.2248
2514.00	0.2245
2517.00	0.2244
2520.00	0.2242
2523.00	0.2237
2526.00	0.2223
2529.00	0.2218
2532.00	0.2216
2535.00	0.2220
2538.00	0.2225
2541.00	0.2225
2544.00	0.2213
2547.00	0.2197
2550.00	0.2195
2553.00	0.2193
2556.00	0.2191
2559.00	0.2196
2562.00	0.2213
2565.00	0.2212
2568.00	0.2200
2571.00	0.2197
2574.00	0.2213
2577.00	0.2218
2580.00	0.2220
2583.00	0.2204
2586.00	0.2176
2589.00	0.2167
2592.00	0.2180
2595.00	0.2189
2598.00	0.2190
2601.00	0.2189
2604.00	0.2181
2607.00	0.2149
2610.00	0.2148
2613.00	0.2164
2616.00	0.2169
2619.00	0.2169
2622.00	0.2151
2625.00	0.2145
2628.00	0.2148
2631.00	0.2146
2634.00	0.2140
2637.00	0.2136
2640.00	0.2131
2643.00	0.2124
2646.00	0.2120
2649.00	0.2123
2652.00	0.2131
2655.00	0.2143
2658.00	0.2148
2661.00	0.2149
2664.00	0.2131
2667.00	0.2108
2670.00	0.2115
2673.00	0.2135
2676.00	0.2160
2679.00	0.2144
2682.00	0.2149
2685.00	0.2185
2688.00	0.2229
2691.00	0.2290
2694.00	0.2384
2697.00	0.2493
2700.00	0.2624
2703.00	0.2764
2706.00	0.2887
2709.00	0.2987
2712.00	0.3093
2715.00	0.3214
2718.00	0.3298
2721.00	0.3338
2724.00	0.3360
2727.00	0.3271
2730.00	0.3234
2733.00	0.3168
2736.00	0.3061
2739.00	0.3001
2742.00	0.2868
2745.00	0.2770
2748.00	0.2692
2751.00	0.2609
2754.00	0.2542
2757.00	0.2451
2760.00	0.2344
2763.00	0.2295
2766.00	0.2239
2769.00	0.2210
2772.00	0.2178
2775.00	0.2141
2778.00	0.2110
2781.00	0.2078
2784.00	0.2059
2787.00	0.2052
2790.00	0.2041
2793.00	0.2029
2796.00	0.2014
2799.00	0.1991
2802.00	0.1977
2805.00	0.1965
2808.00	0.1960
2811.00	0.1954
2814.00	0.1949
2817.00	0.1942
2820.00	0.1944
2823.00	0.1940
2826.00	0.1941
2829.00	0.1943
2832.00	0.1939
2835.00	0.1937
2838.00	0.1936
2841.00	0.1935
2844.00	0.1933
2847.00	0.1932
2850.00	0.1931
2853.00	0.1930
2856.00	0.1931
2859.00	0.1931
2862.00	0.1930
2865.00	0.1924
2868.00	0.1923
2871.00	0.1925
2874.00	0.1924
2877.00	0.1924
2880.00	0.1922
2883.00	0.1922
2886.00	0.1920
2889.00	0.1918
2892.00	0.1914
2895.00	0.1911
2898.00	0.1907
2901.00	0.1911
2904.00	0.1912
2907.00	0.1911
2910.00	0.1907
2913.00	0.1900
2916.00	0.1898
2919.00	0.1897
2922.00	0.1892
2925.00	0.1891
2928.00	0.1889
2931.00	0.1885
2934.00	0.1884
2937.00	0.1882
2940.00	0.1874
2943.00	0.1875
2946.00	0.1873
2949.00	0.1872
2952.00	0.1868
2955.00	0.1867
2958.00	0.1868
2961.00	0.1863
2964.00	0.1865
2967.00	0.1861
2970.00	0.1858
2973.00	0.1862
2976.00	0.1861
2979.00	0.1857
2982.00	0.1850
2985.00	0.1844
2988.00	0.1839
2991.00	0.1842
2994.00	0.1842
2997.00	0.1853
3000.00	0.1874
3003.00	0.1883
3006.00	0.1891
3009.00	0.1900
3012.00	0.1897
3015.00	0.1895
3018.00	0.1889
3021.00	0.1885
3024.00	0.1883
3027.00	0.1882
3030.00	0.1880
3033.00	0.1877
3036.00	0.1875
3039.00	0.1873
3042.00	0.1868
3045.00	0.1865
3048.00	0.1860
3051.00	0.1859
3054.00	0.1859
3057.00	0.1862
3060.00	0.1864
3063.00	0.1862
3066.00	0.1862
3069.00	0.1861
3072.00	0.1861
3075.00	0.1858
3078.00	0.1857
3081.00	0.1856
3084.00	0.1850
3087.00	0.1845
3090.00	0.1842
3093.00	0.1840
3096.00	0.1835
3099.00	0.1830
3102.00	0.1829
3105.00	0.1829
3108.00	0.1827
3111.00	0.1820
3114.00	0.1816
3117.00	0.1812
3120.00	0.1806
3123.00	0.1799
3126.00	0.1792
3129.00	0.1788
3132.00	0.1787
3135.00	0.1783
3138.00	0.1783
3141.00	0.1781
3144.00	0.1778
3147.00	0.1779
3150.00	0.1778
3153.00	0.1777
3156.00	0.1764
3159.00	0.1763
3162.00	0.1763
3165.00	0.1761
3168.00	0.1756
3171.00	0.1751
3174.00	0.1763
3177.00	0.1759
3180.00	0.1750
3183.00	0.1744
3186.00	0.1752
3189.00	0.1760
3192.00	0.1755
3195.00	0.1755
3198.00	0.1761
3201.00	0.1753
3204.00	0.1743
3207.00	0.1717
3210.00	0.1711
3213.00	0.1709
3216.00	0.1704
3219.00	0.1707
3222.00	0.1720
3225.00	0.1752
3228.00	0.1756
3231.00	0.1757
3234.00	0.1744
3237.00	0.1732
3240.00	0.1707
3243.00	0.1682
3246.00	0.1657
3249.00	0.1667
3252.00	0.1667
3255.00	0.1687
3258.00	0.1693
3261.00	0.1712
3264.00	0.1722
3267.00	0.1682
3270.00	0.1640
3273.00	0.1601
3276.00	0.1593
3279.00	0.1599
3282.00	0.1600
3285.00	0.1653
3288.00	0.1661
3291.00	0.1651
3294.00	0.1757
3297.00	0.1825
3300.00	0.1902