File: Tol_UV_VIS_30mM.txt
"20-30mM-1_Toluene30mM - RawData"
"Wavelength nm."	"Abs."
300.00	0.2028
303.00	0.2046
306.00	0.2055
309.00	0.2087
312.00	0.2111
315.00	0.2150
318.00	0.2199
321.00	0.2246
324.00	0.2289
327.00	0.2342
330.00	0.2397
333.00	0.2428
336.00	0.2489
339.00	0.2561
342.00	0.2625
345.00	0.2683
348.00	0.2744
351.00	0.2798
354.00	0.2856
357.00	0.2912
360.00	0.2974
363.00	0.3035
366.00	0.3115
369.00	0.3200
372.00	0.3294
375.00	0.3374
378.00	0.3462
381.00	0.3568
384.00	0.3699
387.00	0.3833
390.00	0.3950
393.00	0.4065
396.00	0.4169
399.00	0.4264
402.00	0.4365
405.00	0.4480
408.00	0.4593
411.00	0.4688
414.00	0.4755
417.00	0.4787
420.00	0.4784
423.00	0.4747
426.00	0.4683
429.00	0.4624
432.00	0.4585
435.00	0.4545
438.00	0.4524
441.00	0.4501
444.00	0.4489
447.00	0.4494
450.00	0.4508
453.00	0.4538
456.00	0.4580
459.00	0.4630
462.00	0.4690
465.00	0.4740
468.00	0.4792
471.00	0.4838
474.00	0.4880
477.00	0.4925
480.00	0.4966
483.00	0.4998
486.00	0.5025
489.00	0.5042
492.00	0.5057
495.00	0.5069
498.00	0.5076
501.00	0.5075
504.00	0.5067
507.00	0.5053
510.00	0.5031
513.00	0.5001
516.00	0.4959
519.00	0.4912
522.00	0.4867
525.00	0.4811
528.00	0.4750
531.00	0.4705
534.00	0.4639
537.00	0.4574
540.00	0.4518
543.00	0.4457
546.00	0.4397
549.00	0.4337
552.00	0.4283
555.00	0.4222
558.00	0.4159
561.00	0.4097
564.00	0.4039
567.00	0.3972
570.00	0.3903
573.00	0.3841
576.00	0.3771
579.00	0.3704
582.00	0.3639
585.00	0.3567
588.00	0.3494
591.00	0.3420
594.00	0.3344
597.00	0.3274
600.00	0.3211
603.00	0.3148
606.00	0.3085
609.00	0.3027
612.00	0.2979
615.00	0.2925
618.00	0.2887
621.00	0.2851
624.00	0.2816
627.00	0.2793
630.00	0.2772
633.00	0.2754
636.00	0.2738
639.00	0.2723
642.00	0.2714
645.00	0.2710
648.00	0.2706
651.00	0.2709
654.00	0.2711
657.00	0.2712
660.00	0.2721
663.00	0.2733
666.00	0.2740
669.00	0.2749
672.00	0.2776
675.00	0.2783
678.00	0.2794
681.00	0.2809
684.00	0.2823
687.00	0.2835
690.00	0.2838
693.00	0.2846
696.00	0.2851
699.00	0.2852
702.00	0.2862
705.00	0.2868
708.00	0.2870
711.00	0.2880
714.00	0.2881
717.00	0.2883
720.00	0.2887
723.00	0.2897
726.00	0.2893
729.00	0.2915
732.00	0.2936
735.00	0.2955
738.00	0.2977
741.00	0.3004
744.00	0.3030
747.00	0.3055
750.00	0.3082
753.00	0.3102
756.00	0.3122
759.00	0.3143
762.00	0.3161
765.00	0.3179
768.00	0.3185
771.00	0.3172
774.00	0.3149
777.00	0.3132
780.00	0.3114
783.00	0.3080
786.00	0.3052
789.00	0.3026
792.00	0.2988
795.00	0.2949
798.00	0.2899
801.00	0.2855
804.00	0.2822
807.00	0.2785
810.00	0.2758
813.00	0.2735
816.00	0.2718
819.00	0.2709
822.00	0.2705
825.00	0.2701
828.00	0.2708
831.00	0.2726
834.00	0.2741
837.00	0.2759
840.00	0.2785
843.00	0.2819
846.00	0.2857
849.00	0.2897
852.00	0.2922
855.00	0.2938
858.00	0.2945
861.00	0.2951
864.00	0.2957
867.00	0.2956
870.00	0.2956
873.00	0.2949
876.00	0.2934
879.00	0.2899
882.00	0.2858
885.00	0.2809
888.00	0.2751
891.00	0.2697
894.00	0.2642
897.00	0.2591
900.00	0.2538
903.00	0.2484
906.00	0.2435
909.00	0.2390
912.00	0.2348
915.00	0.2302
918.00	0.2260
921.00	0.2223
924.00	0.2181
927.00	0.2143
930.00	0.2106
933.00	0.2068
936.00	0.2037
939.00	0.2003
942.00	0.1972
945.00	0.1938
948.00	0.1906
951.00	0.1878
954.00	0.1846
957.00	0.1814
960.00	0.1786
963.00	0.1756
966.00	0.1730
969.00	0.1698
972.00	0.1670
975.00	0.1643
978.00	0.1615
981.00	0.1588
984.00	0.1566
987.00	0.1544
990.00	0.1518
993.00	0.1489
996.00	0.1461
999.00	0.1446
1002.00	0.1420
1005.00	0.1394
1008.00	0.1375
1011.00	0.1351
1014.00	0.1327
1017.00	0.1306
1020.00	0.1286
1023.00	0.1268
1026.00	0.1236
1029.00	0.1218
1032.00	0.1203
1035.00	0.1182
1038.00	0.1168
1041.00	0.1150
1044.00	0.1131
1047.00	0.1114
1050.00	0.1092
1053.00	0.1078
1056.00	0.1064
1059.00	0.1056
1062.00	0.1040
1065.00	0.1022
1068.00	0.1007
1071.00	0.0994
1074.00	0.0979
1077.00	0.0966
1080.00	0.0954
1083.00	0.0943
1086.00	0.0928
1089.00	0.0919
1092.00	0.0909
1095.00	0.0903
1098.00	0.0893
1101.00	0.0887
1104.00	0.0877
1107.00	0.0870
1110.00	0.0860
1113.00	0.0853
1116.00	0.0844
1119.00	0.0837
1122.00	0.0835
1125.00	0.0829
1128.00	0.0825
1131.00	0.0820
1134.00	0.0816
1137.00	0.0812
1140.00	0.0808
1143.00	0.0800
1146.00	0.0798
1149.00	0.0800
1152.00	0.0798
1155.00	0.0791
1158.00	0.0788
1161.00	0.0790
1164.00	0.0787
1167.00	0.0782
1170.00	0.0784
1173.00	0.0784
1176.00	0.0780
1179.00	0.0779
1182.00	0.0779
1185.00	0.0779
1188.00	0.0780
1191.00	0.0780
1194.00	0.0778
1197.00	0.0781
1200.00	0.0781
1203.00	0.0785
1206.00	0.0787
1209.00	0.0782
1212.00	0.0783
1215.00	0.0785
1218.00	0.0786
1221.00	0.0787
1224.00	0.0785
1227.00	0.0788
1230.00	0.0791
1233.00	0.0794
1236.00	0.0799
1239.00	0.0799
1242.00	0.0798
1245.00	0.0803
1248.00	0.0807
1251.00	0.0805
1254.00	0.0808
1257.00	0.0815
1260.00	0.0818
1263.00	0.0821
1266.00	0.0822
1269.00	0.0824
1272.00	0.0834
1275.00	0.0834
1278.00	0.0840
1281.00	0.0846
1284.00	0.0846
1287.00	0.0842
1290.00	0.0849
1293.00	0.0858
1296.00	0.0856
1299.00	0.0855
1302.00	0.0870
1305.00	0.0877
1308.00	0.0879
1311.00	0.0885
1314.00	0.0894
1317.00	0.0900
1320.00	0.0899
1323.00	0.0907
1326.00	0.0914
1329.00	0.0917
1332.00	0.0922
1335.00	0.0927
1338.00	0.0935
1341.00	0.0942
1344.00	0.0945
1347.00	0.0950
1350.00	0.0958
1353.00	0.0968
1356.00	0.0976
1359.00	0.0986
1362.00	0.0999
1365.00	0.1007
1368.00	0.1012
1371.00	0.1021
1374.00	0.1033
1377.00	0.1040
1380.00	0.1049
1383.00	0.1055
1386.00	0.1064
1389.00	0.1076
1392.00	0.1084
1395.00	0.1092
1398.00	0.1107
1401.00	0.1119
1404.00	0.1129
1407.00	0.1137
1410.00	0.1148
1413.00	0.1157
1416.00	0.1166
1419.00	0.1175
1422.00	0.1182
1425.00	0.1190
1428.00	0.1208
1431.00	0.1215
1434.00	0.1227
1437.00	0.1238
1440.00	0.1241
1443.00	0.1254
1446.00	0.1262
1449.00	0.1278
1452.00	0.1289
1455.00	0.1294
1458.00	0.1312
1461.00	0.1321
1464.00	0.1333
1467.00	0.1340
1470.00	0.1353
1473.00	0.1374
1476.00	0.1380
1479.00	0.1385
1482.00	0.1400
1485.00	0.1407
1488.00	0.1418
1491.00	0.1437
1494.00	0.1447
1497.00	0.1463
1500.00	0.1472
1503.00	0.1482
1506.00	0.1496
1509.00	0.1513
1512.00	0.1522
1515.00	0.1534
1518.00	0.1545
1521.00	0.1561
1524.00	0.1573
1527.00	0.1585
1530.00	0.1593
1533.00	0.1600
1536.00	0.1618
1539.00	0.1630
1542.00	0.1640
1545.00	0.1654
1548.00	0.1667
1551.00	0.1679
1554.00	0.1693
1557.00	0.1703
1560.00	0.1716
1563.00	0.1731
1566.00	0.1744
1569.00	0.1754
1572.00	0.1768
1575.00	0.1783
1578.00	0.1799
1581.00	0.1808
1584.00	0.1820
1587.00	0.1834
1590.00	0.1847
1593.00	0.1855
1596.00	0.1869
1599.00	0.1882
1602.00	0.1899
1605.00	0.1910
1608.00	0.1918
1611.00	0.1932
1614.00	0.1945
1617.00	0.1957
1620.00	0.1965
1623.00	0.1975
1626.00	0.1995
1629.00	0.2007
1632.00	0.2013
1635.00	0.2015
1638.00	0.2023
1641.00	0.2035
1644.00	0.2043
1647.00	0.2041
1650.00	0.2040
1653.00	0.2037
1656.00	0.2036
1659.00	0.2039
1662.00	0.2047
1665.00	0.2053
1668.00	0.2061
1671.00	0.2072
1674.00	0.2084
1677.00	0.2099
1680.00	0.2102
1683.00	0.2109
1686.00	0.2118
1689.00	0.2137
1692.00	0.2140
1695.00	0.2143
1698.00	0.2157
1701.00	0.2170
1704.00	0.2174
1707.00	0.2178
1710.00	0.2192
1713.00	0.2207
1716.00	0.2220
1719.00	0.2218
1722.00	0.2226
1725.00	0.2236
1728.00	0.2250
1731.00	0.2260
1734.00	0.2266
1737.00	0.2277
1740.00	0.2287
1743.00	0.2299
1746.00	0.2304
1749.00	0.2308
1752.00	0.2320
1755.00	0.2331
1758.00	0.2338
1761.00	0.2342
1764.00	0.2349
1767.00	0.2363
1770.00	0.2371
1773.00	0.2375
1776.00	0.2385
1779.00	0.2390
1782.00	0.2399
1785.00	0.2411
1788.00	0.2419
1791.00	0.2420
1794.00	0.2426
1797.00	0.2435
1800.00	0.2447
1803.00	0.2453
1806.00	0.2456
1809.00	0.2462
1812.00	0.2473
1815.00	0.2474
1818.00	0.2478
1821.00	0.2485
1824.00	0.2493
1827.00	0.2503
1830.00	0.2509
1833.00	0.2519
1836.00	0.2524
1839.00	0.2524
1842.00	0.2527
1845.00	0.2533
1848.00	0.2530
1851.00	0.2529
1854.00	0.2541
1857.00	0.2553
1860.00	0.2559
1863.00	0.2565
1866.00	0.2569
1869.00	0.2575
1872.00	0.2578
1875.00	0.2584
1878.00	0.2583
1881.00	0.2589
1884.00	0.2590
1887.00	0.2592
1890.00	0.2596
1893.00	0.2598
1896.00	0.2604
1899.00	0.2616
1902.00	0.2631
1905.00	0.2639
1908.00	0.2639
1911.00	0.2638
1914.00	0.2633
1917.00	0.2632
1920.00	0.2640
1923.00	0.2645
1926.00	0.2650
1929.00	0.2651
1932.00	0.2656
1935.00	0.2659
1938.00	0.2664
1941.00	0.2674
1944.00	0.2672
1947.00	0.2671
1950.00	0.2670
1953.00	0.2670
1956.00	0.2680
1959.00	0.2685
1962.00	0.2689
1965.00	0.2690
1968.00	0.2693
1971.00	0.2697
1974.00	0.2696
1977.00	0.2700
1980.00	0.2706
1983.00	0.2706
1986.00	0.2710
1989.00	0.2715
1992.00	0.2721
1995.00	0.2718
1998.00	0.2718
2001.00	0.2727
2004.00	0.2728
2007.00	0.2723
2010.00	0.2732
2013.00	0.2730
2016.00	0.2730
2019.00	0.2729
2022.00	0.2729
2025.00	0.2734
2028.00	0.2732
2031.00	0.2734
2034.00	0.2736
2037.00	0.2739
2040.00	0.2739
2043.00	0.2731
2046.00	0.2736
2049.00	0.2745
2052.00	0.2748
2055.00	0.2753
2058.00	0.2753
2061.00	0.2751
2064.00	0.2754
2067.00	0.2748
2070.00	0.2751
2073.00	0.2753
2076.00	0.2748
2079.00	0.2754
2082.00	0.2756
2085.00	0.2761
2088.00	0.2759
2091.00	0.2754
2094.00	0.2757
2097.00	0.2751
2100.00	0.2759
2103.00	0.2758
2106.00	0.2752
2109.00	0.2750
2112.00	0.2761
2115.00	0.2762
2118.00	0.2762
2121.00	0.2757
2124.00	0.2758
2127.00	0.2762
2130.00	0.2764
2133.00	0.2763
2136.00	0.2761
2139.00	0.2757
2142.00	0.2760
2145.00	0.2761
2148.00	0.2764
2151.00	0.2758
2154.00	0.2744
2157.00	0.2749
2160.00	0.2753
2163.00	0.2747
2166.00	0.2757
2169.00	0.2765
2172.00	0.2756
2175.00	0.2751
2178.00	0.2749
2181.00	0.2753
2184.00	0.2758
2187.00	0.2751
2190.00	0.2749
2193.00	0.2746
2196.00	0.2739
2199.00	0.2741
2202.00	0.2740
2205.00	0.2735
2208.00	0.2729
2211.00	0.2732
2214.00	0.2730
2217.00	0.2727
2220.00	0.2728
2223.00	0.2723
2226.00	0.2720
2229.00	0.2718
2232.00	0.2716
2235.00	0.2733
2238.00	0.2728
2241.00	0.2729
2244.00	0.2736
2247.00	0.2728
2250.00	0.2714
2253.00	0.2717
2256.00	0.2722
2259.00	0.2727
2262.00	0.2726
2265.00	0.2720
2268.00	0.2727
2271.00	0.2725
2274.00	0.2714
2277.00	0.2713
2280.00	0.2715
2283.00	0.2709
2286.00	0.2709
2289.00	0.2711
2292.00	0.2706
2295.00	0.2708
2298.00	0.2708
2301.00	0.2703
2304.00	0.2706
2307.00	0.2709
2310.00	0.2703
2313.00	0.2698
2316.00	0.2696
2319.00	0.2690
2322.00	0.2695
2325.00	0.2693
2328.00	0.2692
2331.00	0.2695
2334.00	0.2692
2337.00	0.2687
2340.00	0.2687
2343.00	0.2688
2346.00	0.2682
2349.00	0.2678
2352.00	0.2684
2355.00	0.2678
2358.00	0.2673
2361.00	0.2672
2364.00	0.2673
2367.00	0.2668
2370.00	0.2660
2373.00	0.2657
2376.00	0.2655
2379.00	0.2661
2382.00	0.2660
2385.00	0.2655
2388.00	0.2655
2391.00	0.2656
2394.00	0.2648
2397.00	0.2647
2400.00	0.2649
2403.00	0.2638
2406.00	0.2641
2409.00	0.2645
2412.00	0.2644
2415.00	0.2640
2418.00	0.2641
2421.00	0.2631
2424.00	0.2621
2427.00	0.2618
2430.00	0.2614
2433.00	0.2610
2436.00	0.2621
2439.00	0.2622
2442.00	0.2617
2445.00	0.2607
2448.00	0.2609
2451.00	0.2613
2454.00	0.2613
2457.00	0.2606
2460.00	0.2598
2463.00	0.2584
2466.00	0.2577
2469.00	0.2587
2472.00	0.2592
2475.00	0.2579
2478.00	0.2590
2481.00	0.2583
2484.00	0.2566
2487.00	0.2566
2490.00	0.2570
2493.00	0.2561
2496.00	0.2562
2499.00	0.2556
2502.00	0.2561
2505.00	0.2564
2508.00	0.2556
2511.00	0.2558
2514.00	0.2554
2517.00	0.2554
2520.00	0.2549
2523.00	0.2546
2526.00	0.2539
2529.00	0.2534
2532.00	0.2533
2535.00	0.2534
2538.00	0.2530
2541.00	0.2532
2544.00	0.2530
2547.00	0.2525
2550.00	0.2512
2553.00	0.2505
2556.00	0.2499
2559.00	0.2502
2562.00	0.2517
2565.00	0.2518
2568.00	0.2512
2571.00	0.2499
2574.00	0.2496
2577.00	0.2499
2580.00	0.2493
2583.00	0.2483
2586.00	0.2475
2589.00	0.2481
2592.00	0.2478
2595.00	0.2463
2598.00	0.2450
2601.00	0.2458
2604.00	0.2462
2607.00	0.2455
2610.00	0.2446
2613.00	0.2450
2616.00	0.2455
2619.00	0.2449
2622.00	0.2445
2625.00	0.2441
2628.00	0.2433
2631.00	0.2438
2634.00	0.2436
2637.00	0.2434
2640.00	0.2425
2643.00	0.2416
2646.00	0.2409
2649.00	0.2404
2652.00	0.2398
2655.00	0.2396
2658.00	0.2396
2661.00	0.2401
2664.00	0.2401
2667.00	0.2402
2670.00	0.2400
2673.00	0.2402
2676.00	0.2401
2679.00	0.2367
2682.00	0.2333
2685.00	0.2344
2688.00	0.2347
2691.00	0.2355
2694.00	0.2371
2697.00	0.2399
2700.00	0.2508
2703.00	0.2589
2706.00	0.2710
2709.00	0.2769
2712.00	0.2847
2715.00	0.2920
2718.00	0.2949
2721.00	0.2995
2724.00	0.2982
2727.00	0.2957
2730.00	0.2912
2733.00	0.2839
2736.00	0.2761
2739.00	0.2639
2742.00	0.2573
2745.00	0.2504
2748.00	0.2471
2751.00	0.2392
2754.00	0.2312
2757.00	0.2263
2760.00	0.2197
2763.00	0.2154
2766.00	0.2124
2769.00	0.2114
2772.00	0.2117
2775.00	0.2105
2778.00	0.2089
2781.00	0.2060
2784.00	0.2051
2787.00	0.2051
2790.00	0.2053
2793.00	0.2057
2796.00	0.2055
2799.00	0.2048
2802.00	0.2046
2805.00	0.2050
2808.00	0.2053
2811.00	0.2065
2814.00	0.2069
2817.00	0.2078
2820.00	0.2086
2823.00	0.2092
2826.00	0.2103
2829.00	0.2113
2832.00	0.2121
2835.00	0.2126
2838.00	0.2133
2841.00	0.2138
2844.00	0.2145
2847.00	0.2148
2850.00	0.2153
2853.00	0.2160
2856.00	0.2160
2859.00	0.2161
2862.00	0.2162
2865.00	0.2161
2868.00	0.2165
2871.00	0.2167
2874.00	0.2167
2877.00	0.2168
2880.00	0.2173
2883.00	0.2174
2886.00	0.2172
2889.00	0.2171
2892.00	0.2168
2895.00	0.2170
2898.00	0.2165
2901.00	0.2165
2904.00	0.2164
2907.00	0.2165
2910.00	0.2163
2913.00	0.2162
2916.00	0.2165
2919.00	0.2160
2922.00	0.2159
2925.00	0.2156
2928.00	0.2152
2931.00	0.2152
2934.00	0.2147
2937.00	0.2146
2940.00	0.2146
2943.00	0.2148
2946.00	0.2149
2949.00	0.2144
2952.00	0.2138
2955.00	0.2131
2958.00	0.2132
2961.00	0.2127
2964.00	0.2132
2967.00	0.2138
2970.00	0.2136
2973.00	0.2136
2976.00	0.2128
2979.00	0.2129
2982.00	0.2128
2985.00	0.2127
2988.00	0.2125
2991.00	0.2116
2994.00	0.2117
2997.00	0.2121
3000.00	0.2133
3003.00	0.2132
3006.00	0.2135
3009.00	0.2134
3012.00	0.2130
3015.00	0.2126
3018.00	0.2123
3021.00	0.2120
3024.00	0.2117
3027.00	0.2116
3030.00	0.2115
3033.00	0.2114
3036.00	0.2107
3039.00	0.2105
3042.00	0.2104
3045.00	0.2100
3048.00	0.2097
3051.00	0.2097
3054.00	0.2096
3057.00	0.2095
3060.00	0.2096
3063.00	0.2097
3066.00	0.2097
3069.00	0.2092
3072.00	0.2092
3075.00	0.2090
3078.00	0.2082
3081.00	0.2080
3084.00	0.2073
3087.00	0.2066
3090.00	0.2062
3093.00	0.2060
3096.00	0.2053
3099.00	0.2050
3102.00	0.2052
3105.00	0.2051
3108.00	0.2051
3111.00	0.2048
3114.00	0.2050
3117.00	0.2045
3120.00	0.2040
3123.00	0.2037
3126.00	0.2032
3129.00	0.2026
3132.00	0.2021
3135.00	0.2016
3138.00	0.2010
3141.00	0.2004
3144.00	0.1996
3147.00	0.1994
3150.00	0.1993
3153.00	0.1995
3156.00	0.1992
3159.00	0.1994
3162.00	0.1992
3165.00	0.1990
3168.00	0.1987
3171.00	0.1981
3174.00	0.1993
3177.00	0.1989
3180.00	0.1983
3183.00	0.1982
3186.00	0.1985
3189.00	0.1984
3192.00	0.1975
3195.00	0.1969
3198.00	0.1962
3201.00	0.1952
3204.00	0.1956
3207.00	0.1931
3210.00	0.1933
3213.00	0.1940
3216.00	0.1934
3219.00	0.1931
3222.00	0.1913
3225.00	0.1940
3228.00	0.1929
3231.00	0.1906
3234.00	0.1906
3237.00	0.1906
3240.00	0.1920
3243.00	0.1907
3246.00	0.1890
3249.00	0.1884
3252.00	0.1883
3255.00	0.1892
3258.00	0.1886
3261.00	0.1886
3264.00	0.1902
3267.00	0.1897
3270.00	0.1876
3273.00	0.1833
3276.00	0.1828
3279.00	0.1825
3282.00	0.1862
3285.00	0.1857
3288.00	0.1851
3291.00	0.1874
3294.00	0.1946
3297.00	0.1970
3300.00	0.1995