File: Xyl_UV_VIS_20mM.txt
"20-30mM-1_Xylene20mM - RawData"
"Wavelength nm."	"Abs."
300.00	0.1017
303.00	0.1051
306.00	0.1078
309.00	0.1124
312.00	0.1158
315.00	0.1207
318.00	0.1267
321.00	0.1317
324.00	0.1365
327.00	0.1411
330.00	0.1459
333.00	0.1496
336.00	0.1553
339.00	0.1612
342.00	0.1659
345.00	0.1706
348.00	0.1741
351.00	0.1766
354.00	0.1791
357.00	0.1808
360.00	0.1817
363.00	0.1820
366.00	0.1843
369.00	0.1864
372.00	0.1885
375.00	0.1890
378.00	0.1893
381.00	0.1904
384.00	0.1927
387.00	0.1961
390.00	0.1978
393.00	0.2001
396.00	0.2023
399.00	0.2031
402.00	0.2049
405.00	0.2074
408.00	0.2094
411.00	0.2118
414.00	0.2137
417.00	0.2151
420.00	0.2156
423.00	0.2150
426.00	0.2136
429.00	0.2126
432.00	0.2115
435.00	0.2105
438.00	0.2088
441.00	0.2068
444.00	0.2049
447.00	0.2031
450.00	0.2018
453.00	0.2016
456.00	0.2018
459.00	0.2020
462.00	0.2030
465.00	0.2037
468.00	0.2042
471.00	0.2045
474.00	0.2055
477.00	0.2070
480.00	0.2085
483.00	0.2099
486.00	0.2107
489.00	0.2108
492.00	0.2110
495.00	0.2115
498.00	0.2117
501.00	0.2122
504.00	0.2122
507.00	0.2119
510.00	0.2113
513.00	0.2105
516.00	0.2090
519.00	0.2075
522.00	0.2062
525.00	0.2044
528.00	0.2022
531.00	0.2014
534.00	0.1988
537.00	0.1964
540.00	0.1946
543.00	0.1926
546.00	0.1906
549.00	0.1887
552.00	0.1870
555.00	0.1850
558.00	0.1831
561.00	0.1813
564.00	0.1797
567.00	0.1777
570.00	0.1753
573.00	0.1740
576.00	0.1715
579.00	0.1683
582.00	0.1660
585.00	0.1634
588.00	0.1612
591.00	0.1587
594.00	0.1557
597.00	0.1530
600.00	0.1504
603.00	0.1476
606.00	0.1450
609.00	0.1427
612.00	0.1408
615.00	0.1388
618.00	0.1373
621.00	0.1347
624.00	0.1330
627.00	0.1316
630.00	0.1303
633.00	0.1290
636.00	0.1277
639.00	0.1272
642.00	0.1264
645.00	0.1255
648.00	0.1252
651.00	0.1257
654.00	0.1260
657.00	0.1258
660.00	0.1253
663.00	0.1249
666.00	0.1248
669.00	0.1248
672.00	0.1266
675.00	0.1270
678.00	0.1270
681.00	0.1275
684.00	0.1283
687.00	0.1286
690.00	0.1287
693.00	0.1293
696.00	0.1296
699.00	0.1296
702.00	0.1301
705.00	0.1307
708.00	0.1314
711.00	0.1317
714.00	0.1320
717.00	0.1323
720.00	0.1325
723.00	0.1327
726.00	0.1311
729.00	0.1319
732.00	0.1328
735.00	0.1338
738.00	0.1340
741.00	0.1350
744.00	0.1353
747.00	0.1359
750.00	0.1369
753.00	0.1377
756.00	0.1382
759.00	0.1386
762.00	0.1391
765.00	0.1402
768.00	0.1408
771.00	0.1402
774.00	0.1398
777.00	0.1393
780.00	0.1380
783.00	0.1360
786.00	0.1360
789.00	0.1351
792.00	0.1334
795.00	0.1310
798.00	0.1272
801.00	0.1241
804.00	0.1218
807.00	0.1191
810.00	0.1180
813.00	0.1175
816.00	0.1164
819.00	0.1151
822.00	0.1149
825.00	0.1153
828.00	0.1155
831.00	0.1158
834.00	0.1159
837.00	0.1159
840.00	0.1161
843.00	0.1169
846.00	0.1177
849.00	0.1181
852.00	0.1185
855.00	0.1190
858.00	0.1188
861.00	0.1183
864.00	0.1182
867.00	0.1178
870.00	0.1177
873.00	0.1173
876.00	0.1170
879.00	0.1159
882.00	0.1147
885.00	0.1127
888.00	0.1108
891.00	0.1089
894.00	0.1068
897.00	0.1049
900.00	0.1031
903.00	0.1011
906.00	0.0995
909.00	0.0979
912.00	0.0959
915.00	0.0942
918.00	0.0928
921.00	0.0915
924.00	0.0894
927.00	0.0878
930.00	0.0866
933.00	0.0852
936.00	0.0843
939.00	0.0828
942.00	0.0808
945.00	0.0793
948.00	0.0779
951.00	0.0767
954.00	0.0754
957.00	0.0737
960.00	0.0730
963.00	0.0714
966.00	0.0702
969.00	0.0688
972.00	0.0677
975.00	0.0662
978.00	0.0648
981.00	0.0636
984.00	0.0628
987.00	0.0616
990.00	0.0603
993.00	0.0592
996.00	0.0582
999.00	0.0570
1002.00	0.0556
1005.00	0.0545
1008.00	0.0537
1011.00	0.0524
1014.00	0.0511
1017.00	0.0502
1020.00	0.0495
1023.00	0.0486
1026.00	0.0473
1029.00	0.0464
1032.00	0.0460
1035.00	0.0450
1038.00	0.0439
1041.00	0.0432
1044.00	0.0425
1047.00	0.0416
1050.00	0.0407
1053.00	0.0401
1056.00	0.0395
1059.00	0.0394
1062.00	0.0385
1065.00	0.0375
1068.00	0.0372
1071.00	0.0365
1074.00	0.0355
1077.00	0.0352
1080.00	0.0350
1083.00	0.0346
1086.00	0.0340
1089.00	0.0336
1092.00	0.0327
1095.00	0.0321
1098.00	0.0326
1101.00	0.0323
1104.00	0.0317
1107.00	0.0312
1110.00	0.0310
1113.00	0.0308
1116.00	0.0306
1119.00	0.0302
1122.00	0.0306
1125.00	0.0303
1128.00	0.0297
1131.00	0.0292
1134.00	0.0294
1137.00	0.0294
1140.00	0.0292
1143.00	0.0288
1146.00	0.0288
1149.00	0.0288
1152.00	0.0294
1155.00	0.0288
1158.00	0.0290
1161.00	0.0289
1164.00	0.0285
1167.00	0.0284
1170.00	0.0289
1173.00	0.0290
1176.00	0.0285
1179.00	0.0285
1182.00	0.0289
1185.00	0.0285
1188.00	0.0282
1191.00	0.0287
1194.00	0.0292
1197.00	0.0292
1200.00	0.0286
1203.00	0.0289
1206.00	0.0296
1209.00	0.0291
1212.00	0.0290
1215.00	0.0292
1218.00	0.0291
1221.00	0.0288
1224.00	0.0293
1227.00	0.0296
1230.00	0.0294
1233.00	0.0294
1236.00	0.0298
1239.00	0.0298
1242.00	0.0298
1245.00	0.0298
1248.00	0.0293
1251.00	0.0302
1254.00	0.0301
1257.00	0.0302
1260.00	0.0307
1263.00	0.0312
1266.00	0.0312
1269.00	0.0314
1272.00	0.0315
1275.00	0.0315
1278.00	0.0309
1281.00	0.0315
1284.00	0.0323
1287.00	0.0320
1290.00	0.0319
1293.00	0.0323
1296.00	0.0326
1299.00	0.0325
1302.00	0.0327
1305.00	0.0330
1308.00	0.0326
1311.00	0.0330
1314.00	0.0335
1317.00	0.0336
1320.00	0.0338
1323.00	0.0339
1326.00	0.0342
1329.00	0.0344
1332.00	0.0346
1335.00	0.0348
1338.00	0.0351
1341.00	0.0352
1344.00	0.0354
1347.00	0.0359
1350.00	0.0358
1353.00	0.0358
1356.00	0.0366
1359.00	0.0373
1362.00	0.0377
1365.00	0.0378
1368.00	0.0379
1371.00	0.0385
1374.00	0.0387
1377.00	0.0390
1380.00	0.0393
1383.00	0.0397
1386.00	0.0399
1389.00	0.0403
1392.00	0.0410
1395.00	0.0411
1398.00	0.0409
1401.00	0.0415
1404.00	0.0423
1407.00	0.0426
1410.00	0.0427
1413.00	0.0430
1416.00	0.0437
1419.00	0.0441
1422.00	0.0444
1425.00	0.0448
1428.00	0.0447
1431.00	0.0448
1434.00	0.0459
1437.00	0.0459
1440.00	0.0456
1443.00	0.0457
1446.00	0.0467
1449.00	0.0473
1452.00	0.0478
1455.00	0.0480
1458.00	0.0483
1461.00	0.0476
1464.00	0.0485
1467.00	0.0491
1470.00	0.0488
1473.00	0.0493
1476.00	0.0500
1479.00	0.0505
1482.00	0.0512
1485.00	0.0518
1488.00	0.0518
1491.00	0.0521
1494.00	0.0526
1497.00	0.0537
1500.00	0.0537
1503.00	0.0541
1506.00	0.0549
1509.00	0.0558
1512.00	0.0556
1515.00	0.0560
1518.00	0.0564
1521.00	0.0571
1524.00	0.0574
1527.00	0.0579
1530.00	0.0582
1533.00	0.0587
1536.00	0.0595
1539.00	0.0595
1542.00	0.0598
1545.00	0.0606
1548.00	0.0610
1551.00	0.0611
1554.00	0.0617
1557.00	0.0625
1560.00	0.0631
1563.00	0.0635
1566.00	0.0639
1569.00	0.0640
1572.00	0.0646
1575.00	0.0650
1578.00	0.0656
1581.00	0.0659
1584.00	0.0660
1587.00	0.0669
1590.00	0.0673
1593.00	0.0679
1596.00	0.0683
1599.00	0.0688
1602.00	0.0696
1605.00	0.0699
1608.00	0.0701
1611.00	0.0705
1614.00	0.0708
1617.00	0.0713
1620.00	0.0722
1623.00	0.0724
1626.00	0.0735
1629.00	0.0741
1632.00	0.0738
1635.00	0.0743
1638.00	0.0746
1641.00	0.0747
1644.00	0.0745
1647.00	0.0743
1650.00	0.0742
1653.00	0.0737
1656.00	0.0734
1659.00	0.0737
1662.00	0.0743
1665.00	0.0743
1668.00	0.0745
1671.00	0.0748
1674.00	0.0753
1677.00	0.0759
1680.00	0.0761
1683.00	0.0766
1686.00	0.0774
1689.00	0.0778
1692.00	0.0774
1695.00	0.0776
1698.00	0.0786
1701.00	0.0793
1704.00	0.0790
1707.00	0.0792
1710.00	0.0802
1713.00	0.0812
1716.00	0.0820
1719.00	0.0819
1722.00	0.0820
1725.00	0.0823
1728.00	0.0828
1731.00	0.0835
1734.00	0.0835
1737.00	0.0838
1740.00	0.0842
1743.00	0.0849
1746.00	0.0853
1749.00	0.0857
1752.00	0.0865
1755.00	0.0870
1758.00	0.0870
1761.00	0.0870
1764.00	0.0877
1767.00	0.0886
1770.00	0.0891
1773.00	0.0889
1776.00	0.0895
1779.00	0.0897
1782.00	0.0899
1785.00	0.0906
1788.00	0.0909
1791.00	0.0910
1794.00	0.0911
1797.00	0.0920
1800.00	0.0922
1803.00	0.0924
1806.00	0.0930
1809.00	0.0937
1812.00	0.0939
1815.00	0.0934
1818.00	0.0935
1821.00	0.0945
1824.00	0.0947
1827.00	0.0951
1830.00	0.0956
1833.00	0.0961
1836.00	0.0967
1839.00	0.0969
1842.00	0.0971
1845.00	0.0970
1848.00	0.0966
1851.00	0.0966
1854.00	0.0976
1857.00	0.0986
1860.00	0.0989
1863.00	0.0985
1866.00	0.0986
1869.00	0.0987
1872.00	0.0994
1875.00	0.1003
1878.00	0.1002
1881.00	0.1002
1884.00	0.1002
1887.00	0.1000
1890.00	0.1003
1893.00	0.1006
1896.00	0.1011
1899.00	0.1020
1902.00	0.1029
1905.00	0.1036
1908.00	0.1034
1911.00	0.1035
1914.00	0.1033
1917.00	0.1033
1920.00	0.1035
1923.00	0.1038
1926.00	0.1045
1929.00	0.1045
1932.00	0.1043
1935.00	0.1045
1938.00	0.1053
1941.00	0.1059
1944.00	0.1058
1947.00	0.1060
1950.00	0.1059
1953.00	0.1055
1956.00	0.1054
1959.00	0.1062
1962.00	0.1066
1965.00	0.1064
1968.00	0.1068
1971.00	0.1071
1974.00	0.1073
1977.00	0.1076
1980.00	0.1077
1983.00	0.1080
1986.00	0.1085
1989.00	0.1086
1992.00	0.1084
1995.00	0.1085
1998.00	0.1090
2001.00	0.1094
2004.00	0.1098
2007.00	0.1095
2010.00	0.1097
2013.00	0.1099
2016.00	0.1098
2019.00	0.1098
2022.00	0.1100
2025.00	0.1100
2028.00	0.1104
2031.00	0.1101
2034.00	0.1104
2037.00	0.1106
2040.00	0.1108
2043.00	0.1105
2046.00	0.1109
2049.00	0.1110
2052.00	0.1117
2055.00	0.1124
2058.00	0.1124
2061.00	0.1125
2064.00	0.1120
2067.00	0.1124
2070.00	0.1129
2073.00	0.1128
2076.00	0.1123
2079.00	0.1125
2082.00	0.1125
2085.00	0.1133
2088.00	0.1135
2091.00	0.1138
2094.00	0.1141
2097.00	0.1131
2100.00	0.1137
2103.00	0.1139
2106.00	0.1136
2109.00	0.1134
2112.00	0.1139
2115.00	0.1134
2118.00	0.1133
2121.00	0.1138
2124.00	0.1142
2127.00	0.1150
2130.00	0.1146
2133.00	0.1142
2136.00	0.1148
2139.00	0.1146
2142.00	0.1149
2145.00	0.1152
2148.00	0.1151
2151.00	0.1143
2154.00	0.1141
2157.00	0.1144
2160.00	0.1148
2163.00	0.1147
2166.00	0.1151
2169.00	0.1157
2172.00	0.1158
2175.00	0.1157
2178.00	0.1149
2181.00	0.1156
2184.00	0.1157
2187.00	0.1152
2190.00	0.1154
2193.00	0.1154
2196.00	0.1143
2199.00	0.1148
2202.00	0.1151
2205.00	0.1147
2208.00	0.1145
2211.00	0.1143
2214.00	0.1139
2217.00	0.1141
2220.00	0.1146
2223.00	0.1139
2226.00	0.1141
2229.00	0.1136
2232.00	0.1138
2235.00	0.1147
2238.00	0.1140
2241.00	0.1146
2244.00	0.1155
2247.00	0.1154
2250.00	0.1145
2253.00	0.1142
2256.00	0.1147
2259.00	0.1152
2262.00	0.1152
2265.00	0.1151
2268.00	0.1154
2271.00	0.1155
2274.00	0.1152
2277.00	0.1153
2280.00	0.1152
2283.00	0.1148
2286.00	0.1146
2289.00	0.1153
2292.00	0.1155
2295.00	0.1154
2298.00	0.1154
2301.00	0.1155
2304.00	0.1155
2307.00	0.1151
2310.00	0.1154
2313.00	0.1158
2316.00	0.1153
2319.00	0.1148
2322.00	0.1151
2325.00	0.1157
2328.00	0.1151
2331.00	0.1151
2334.00	0.1159
2337.00	0.1157
2340.00	0.1152
2343.00	0.1148
2346.00	0.1150
2349.00	0.1152
2352.00	0.1156
2355.00	0.1158
2358.00	0.1158
2361.00	0.1158
2364.00	0.1151
2367.00	0.1151
2370.00	0.1156
2373.00	0.1155
2376.00	0.1150
2379.00	0.1155
2382.00	0.1151
2385.00	0.1149
2388.00	0.1156
2391.00	0.1150
2394.00	0.1151
2397.00	0.1151
2400.00	0.1154
2403.00	0.1150
2406.00	0.1145
2409.00	0.1145
2412.00	0.1145
2415.00	0.1148
2418.00	0.1146
2421.00	0.1138
2424.00	0.1138
2427.00	0.1140
2430.00	0.1142
2433.00	0.1136
2436.00	0.1140
2439.00	0.1148
2442.00	0.1143
2445.00	0.1134
2448.00	0.1133
2451.00	0.1137
2454.00	0.1145
2457.00	0.1133
2460.00	0.1131
2463.00	0.1136
2466.00	0.1134
2469.00	0.1129
2472.00	0.1125
2475.00	0.1127
2478.00	0.1135
2481.00	0.1128
2484.00	0.1121
2487.00	0.1126
2490.00	0.1132
2493.00	0.1123
2496.00	0.1120
2499.00	0.1119
2502.00	0.1120
2505.00	0.1122
2508.00	0.1122
2511.00	0.1125
2514.00	0.1127
2517.00	0.1124
2520.00	0.1123
2523.00	0.1121
2526.00	0.1115
2529.00	0.1111
2532.00	0.1110
2535.00	0.1111
2538.00	0.1113
2541.00	0.1113
2544.00	0.1110
2547.00	0.1101
2550.00	0.1096
2553.00	0.1093
2556.00	0.1085
2559.00	0.1087
2562.00	0.1099
2565.00	0.1103
2568.00	0.1104
2571.00	0.1099
2574.00	0.1101
2577.00	0.1101
2580.00	0.1093
2583.00	0.1090
2586.00	0.1080
2589.00	0.1082
2592.00	0.1098
2595.00	0.1100
2598.00	0.1085
2601.00	0.1082
2604.00	0.1083
2607.00	0.1070
2610.00	0.1077
2613.00	0.1079
2616.00	0.1087
2619.00	0.1088
2622.00	0.1075
2625.00	0.1076
2628.00	0.1086
2631.00	0.1086
2634.00	0.1075
2637.00	0.1073
2640.00	0.1073
2643.00	0.1068
2646.00	0.1064
2649.00	0.1062
2652.00	0.1057
2655.00	0.1055
2658.00	0.1047
2661.00	0.1044
2664.00	0.1046
2667.00	0.1066
2670.00	0.1068
2673.00	0.1070
2676.00	0.1070
2679.00	0.1078
2682.00	0.1067
2685.00	0.1056
2688.00	0.1044
2691.00	0.1065
2694.00	0.1083
2697.00	0.1138
2700.00	0.1250
2703.00	0.1345
2706.00	0.1438
2709.00	0.1513
2712.00	0.1594
2715.00	0.1637
2718.00	0.1684
2721.00	0.1713
2724.00	0.1738
2727.00	0.1709
2730.00	0.1660
2733.00	0.1602
2736.00	0.1529
2739.00	0.1453
2742.00	0.1354
2745.00	0.1266
2748.00	0.1215
2751.00	0.1164
2754.00	0.1128
2757.00	0.1075
2760.00	0.1015
2763.00	0.0968
2766.00	0.0920
2769.00	0.0892
2772.00	0.0872
2775.00	0.0865
2778.00	0.0851
2781.00	0.0829
2784.00	0.0836
2787.00	0.0828
2790.00	0.0828
2793.00	0.0827
2796.00	0.0829
2799.00	0.0820
2802.00	0.0823
2805.00	0.0830
2808.00	0.0834
2811.00	0.0848
2814.00	0.0853
2817.00	0.0855
2820.00	0.0863
2823.00	0.0872
2826.00	0.0879
2829.00	0.0888
2832.00	0.0893
2835.00	0.0897
2838.00	0.0904
2841.00	0.0911
2844.00	0.0918
2847.00	0.0924
2850.00	0.0929
2853.00	0.0932
2856.00	0.0935
2859.00	0.0939
2862.00	0.0944
2865.00	0.0944
2868.00	0.0947
2871.00	0.0951
2874.00	0.0952
2877.00	0.0952
2880.00	0.0953
2883.00	0.0956
2886.00	0.0958
2889.00	0.0962
2892.00	0.0965
2895.00	0.0962
2898.00	0.0963
2901.00	0.0964
2904.00	0.0965
2907.00	0.0964
2910.00	0.0963
2913.00	0.0962
2916.00	0.0961
2919.00	0.0961
2922.00	0.0960
2925.00	0.0956
2928.00	0.0962
2931.00	0.0963
2934.00	0.0967
2937.00	0.0965
2940.00	0.0966
2943.00	0.0969
2946.00	0.0968
2949.00	0.0969
2952.00	0.0965
2955.00	0.0962
2958.00	0.0961
2961.00	0.0958
2964.00	0.0960
2967.00	0.0965
2970.00	0.0966
2973.00	0.0971
2976.00	0.0971
2979.00	0.0970
2982.00	0.0971
2985.00	0.0968
2988.00	0.0967
2991.00	0.0971
2994.00	0.0967
2997.00	0.0987
3000.00	0.1015
3003.00	0.1033
3006.00	0.1048
3009.00	0.1065
3012.00	0.1065
3015.00	0.1062
3018.00	0.1060
3021.00	0.1059
3024.00	0.1056
3027.00	0.1057
3030.00	0.1054
3033.00	0.1054
3036.00	0.1052
3039.00	0.1051
3042.00	0.1049
3045.00	0.1047
3048.00	0.1047
3051.00	0.1050
3054.00	0.1050
3057.00	0.1048
3060.00	0.1055
3063.00	0.1054
3066.00	0.1055
3069.00	0.1054
3072.00	0.1057
3075.00	0.1058
3078.00	0.1054
3081.00	0.1053
3084.00	0.1051
3087.00	0.1050
3090.00	0.1047
3093.00	0.1047
3096.00	0.1046
3099.00	0.1042
3102.00	0.1039
3105.00	0.1039
3108.00	0.1038
3111.00	0.1033
3114.00	0.1034
3117.00	0.1031
3120.00	0.1024
3123.00	0.1022
3126.00	0.1022
3129.00	0.1022
3132.00	0.1021
3135.00	0.1023
3138.00	0.1024
3141.00	0.1023
3144.00	0.1017
3147.00	0.1017
3150.00	0.1014
3153.00	0.1007
3156.00	0.1001
3159.00	0.1001
3162.00	0.1000
3165.00	0.0999
3168.00	0.0996
3171.00	0.1004
3174.00	0.1013
3177.00	0.1013
3180.00	0.1010
3183.00	0.1016
3186.00	0.1024
3189.00	0.1024
3192.00	0.1018
3195.00	0.1019
3198.00	0.1020
3201.00	0.1012
3204.00	0.1002
3207.00	0.0983
3210.00	0.0991
3213.00	0.0983
3216.00	0.0976
3219.00	0.1000
3222.00	0.0991
3225.00	0.1000
3228.00	0.1011
3231.00	0.1010
3234.00	0.1006
3237.00	0.0990
3240.00	0.0990
3243.00	0.0984
3246.00	0.0974
3249.00	0.0979
3252.00	0.0969
3255.00	0.0963
3258.00	0.0952
3261.00	0.0939
3264.00	0.0963
3267.00	0.0964
3270.00	0.0921
3273.00	0.0900
3276.00	0.0915
3279.00	0.0929
3282.00	0.0915
3285.00	0.0932
3288.00	0.0975
3291.00	0.1008
3294.00	0.1101
3297.00	0.1183
3300.00	0.1270