File: Xyl_UV_VIS_30mM.txt
"20-30mM-1_Xylene30mM - RawData"
"Wavelength nm."	"Abs."
300.00	0.1387
303.00	0.1441
306.00	0.1489
309.00	0.1558
312.00	0.1612
315.00	0.1671
318.00	0.1742
321.00	0.1807
324.00	0.1863
327.00	0.1925
330.00	0.1967
333.00	0.1994
336.00	0.2056
339.00	0.2119
342.00	0.2163
345.00	0.2209
348.00	0.2244
351.00	0.2270
354.00	0.2302
357.00	0.2326
360.00	0.2343
363.00	0.2346
366.00	0.2377
369.00	0.2413
372.00	0.2444
375.00	0.2454
378.00	0.2468
381.00	0.2496
384.00	0.2527
387.00	0.2561
390.00	0.2588
393.00	0.2614
396.00	0.2634
399.00	0.2647
402.00	0.2669
405.00	0.2695
408.00	0.2719
411.00	0.2742
414.00	0.2759
417.00	0.2771
420.00	0.2765
423.00	0.2744
426.00	0.2721
429.00	0.2699
432.00	0.2675
435.00	0.2657
438.00	0.2622
441.00	0.2566
444.00	0.2506
447.00	0.2452
450.00	0.2404
453.00	0.2367
456.00	0.2341
459.00	0.2325
462.00	0.2322
465.00	0.2314
468.00	0.2309
471.00	0.2305
474.00	0.2303
477.00	0.2304
480.00	0.2304
483.00	0.2307
486.00	0.2308
489.00	0.2299
492.00	0.2295
495.00	0.2297
498.00	0.2296
501.00	0.2291
504.00	0.2287
507.00	0.2286
510.00	0.2279
513.00	0.2266
516.00	0.2254
519.00	0.2238
522.00	0.2224
525.00	0.2203
528.00	0.2181
531.00	0.2173
534.00	0.2148
537.00	0.2129
540.00	0.2118
543.00	0.2085
546.00	0.2064
549.00	0.2045
552.00	0.2029
555.00	0.2010
558.00	0.1986
561.00	0.1962
564.00	0.1948
567.00	0.1925
570.00	0.1904
573.00	0.1884
576.00	0.1858
579.00	0.1835
582.00	0.1812
585.00	0.1786
588.00	0.1758
591.00	0.1730
594.00	0.1701
597.00	0.1672
600.00	0.1644
603.00	0.1621
606.00	0.1592
609.00	0.1567
612.00	0.1545
615.00	0.1519
618.00	0.1502
621.00	0.1480
624.00	0.1463
627.00	0.1452
630.00	0.1440
633.00	0.1425
636.00	0.1407
639.00	0.1402
642.00	0.1395
645.00	0.1390
648.00	0.1383
651.00	0.1384
654.00	0.1381
657.00	0.1372
660.00	0.1375
663.00	0.1380
666.00	0.1379
669.00	0.1383
672.00	0.1394
675.00	0.1390
678.00	0.1393
681.00	0.1396
684.00	0.1405
687.00	0.1409
690.00	0.1404
693.00	0.1409
696.00	0.1412
699.00	0.1410
702.00	0.1412
705.00	0.1414
708.00	0.1417
711.00	0.1422
714.00	0.1421
717.00	0.1423
720.00	0.1424
723.00	0.1427
726.00	0.1415
729.00	0.1424
732.00	0.1432
735.00	0.1439
738.00	0.1443
741.00	0.1454
744.00	0.1458
747.00	0.1463
750.00	0.1477
753.00	0.1482
756.00	0.1490
759.00	0.1494
762.00	0.1498
765.00	0.1505
768.00	0.1507
771.00	0.1502
774.00	0.1502
777.00	0.1494
780.00	0.1477
783.00	0.1465
786.00	0.1464
789.00	0.1453
792.00	0.1436
795.00	0.1421
798.00	0.1400
801.00	0.1385
804.00	0.1375
807.00	0.1358
810.00	0.1347
813.00	0.1332
816.00	0.1324
819.00	0.1323
822.00	0.1317
825.00	0.1311
828.00	0.1312
831.00	0.1320
834.00	0.1320
837.00	0.1322
840.00	0.1328
843.00	0.1335
846.00	0.1345
849.00	0.1357
852.00	0.1364
855.00	0.1369
858.00	0.1365
861.00	0.1362
864.00	0.1362
867.00	0.1356
870.00	0.1351
873.00	0.1346
876.00	0.1341
879.00	0.1327
882.00	0.1310
885.00	0.1292
888.00	0.1269
891.00	0.1247
894.00	0.1226
897.00	0.1202
900.00	0.1181
903.00	0.1158
906.00	0.1140
909.00	0.1124
912.00	0.1102
915.00	0.1082
918.00	0.1067
921.00	0.1053
924.00	0.1030
927.00	0.1012
930.00	0.0997
933.00	0.0980
936.00	0.0967
939.00	0.0952
942.00	0.0937
945.00	0.0922
948.00	0.0905
951.00	0.0893
954.00	0.0877
957.00	0.0862
960.00	0.0847
963.00	0.0832
966.00	0.0821
969.00	0.0806
972.00	0.0793
975.00	0.0780
978.00	0.0768
981.00	0.0754
984.00	0.0743
987.00	0.0732
990.00	0.0721
993.00	0.0709
996.00	0.0697
999.00	0.0687
1002.00	0.0673
1005.00	0.0658
1008.00	0.0651
1011.00	0.0639
1014.00	0.0625
1017.00	0.0614
1020.00	0.0606
1023.00	0.0599
1026.00	0.0587
1029.00	0.0574
1032.00	0.0572
1035.00	0.0563
1038.00	0.0550
1041.00	0.0536
1044.00	0.0531
1047.00	0.0529
1050.00	0.0515
1053.00	0.0507
1056.00	0.0504
1059.00	0.0502
1062.00	0.0492
1065.00	0.0485
1068.00	0.0481
1071.00	0.0475
1074.00	0.0463
1077.00	0.0458
1080.00	0.0453
1083.00	0.0447
1086.00	0.0442
1089.00	0.0440
1092.00	0.0438
1095.00	0.0432
1098.00	0.0428
1101.00	0.0428
1104.00	0.0421
1107.00	0.0417
1110.00	0.0413
1113.00	0.0411
1116.00	0.0401
1119.00	0.0397
1122.00	0.0403
1125.00	0.0401
1128.00	0.0398
1131.00	0.0397
1134.00	0.0395
1137.00	0.0394
1140.00	0.0394
1143.00	0.0390
1146.00	0.0390
1149.00	0.0389
1152.00	0.0389
1155.00	0.0387
1158.00	0.0388
1161.00	0.0391
1164.00	0.0383
1167.00	0.0375
1170.00	0.0385
1173.00	0.0387
1176.00	0.0384
1179.00	0.0384
1182.00	0.0384
1185.00	0.0384
1188.00	0.0386
1191.00	0.0385
1194.00	0.0387
1197.00	0.0391
1200.00	0.0387
1203.00	0.0389
1206.00	0.0390
1209.00	0.0381
1212.00	0.0382
1215.00	0.0386
1218.00	0.0387
1221.00	0.0387
1224.00	0.0388
1227.00	0.0388
1230.00	0.0388
1233.00	0.0391
1236.00	0.0390
1239.00	0.0387
1242.00	0.0387
1245.00	0.0391
1248.00	0.0393
1251.00	0.0391
1254.00	0.0397
1257.00	0.0390
1260.00	0.0391
1263.00	0.0395
1266.00	0.0400
1269.00	0.0398
1272.00	0.0397
1275.00	0.0399
1278.00	0.0405
1281.00	0.0408
1284.00	0.0408
1287.00	0.0406
1290.00	0.0404
1293.00	0.0407
1296.00	0.0407
1299.00	0.0409
1302.00	0.0420
1305.00	0.0420
1308.00	0.0412
1311.00	0.0414
1314.00	0.0417
1317.00	0.0420
1320.00	0.0418
1323.00	0.0419
1326.00	0.0422
1329.00	0.0424
1332.00	0.0421
1335.00	0.0420
1338.00	0.0425
1341.00	0.0429
1344.00	0.0430
1347.00	0.0431
1350.00	0.0429
1353.00	0.0432
1356.00	0.0436
1359.00	0.0440
1362.00	0.0446
1365.00	0.0453
1368.00	0.0453
1371.00	0.0454
1374.00	0.0455
1377.00	0.0453
1380.00	0.0456
1383.00	0.0459
1386.00	0.0462
1389.00	0.0470
1392.00	0.0476
1395.00	0.0475
1398.00	0.0478
1401.00	0.0486
1404.00	0.0489
1407.00	0.0488
1410.00	0.0488
1413.00	0.0498
1416.00	0.0499
1419.00	0.0498
1422.00	0.0505
1425.00	0.0511
1428.00	0.0516
1431.00	0.0515
1434.00	0.0522
1437.00	0.0527
1440.00	0.0529
1443.00	0.0528
1446.00	0.0532
1449.00	0.0536
1452.00	0.0540
1455.00	0.0535
1458.00	0.0544
1461.00	0.0548
1464.00	0.0550
1467.00	0.0550
1470.00	0.0555
1473.00	0.0564
1476.00	0.0565
1479.00	0.0565
1482.00	0.0570
1485.00	0.0582
1488.00	0.0581
1491.00	0.0582
1494.00	0.0586
1497.00	0.0593
1500.00	0.0586
1503.00	0.0593
1506.00	0.0603
1509.00	0.0613
1512.00	0.0613
1515.00	0.0617
1518.00	0.0614
1521.00	0.0624
1524.00	0.0628
1527.00	0.0633
1530.00	0.0636
1533.00	0.0638
1536.00	0.0644
1539.00	0.0648
1542.00	0.0650
1545.00	0.0658
1548.00	0.0660
1551.00	0.0664
1554.00	0.0671
1557.00	0.0673
1560.00	0.0676
1563.00	0.0685
1566.00	0.0690
1569.00	0.0692
1572.00	0.0696
1575.00	0.0695
1578.00	0.0698
1581.00	0.0703
1584.00	0.0712
1587.00	0.0721
1590.00	0.0728
1593.00	0.0730
1596.00	0.0734
1599.00	0.0741
1602.00	0.0748
1605.00	0.0750
1608.00	0.0753
1611.00	0.0760
1614.00	0.0763
1617.00	0.0768
1620.00	0.0769
1623.00	0.0771
1626.00	0.0783
1629.00	0.0791
1632.00	0.0789
1635.00	0.0793
1638.00	0.0793
1641.00	0.0785
1644.00	0.0796
1647.00	0.0788
1650.00	0.0781
1653.00	0.0772
1656.00	0.0765
1659.00	0.0767
1662.00	0.0772
1665.00	0.0771
1668.00	0.0773
1671.00	0.0775
1674.00	0.0779
1677.00	0.0783
1680.00	0.0784
1683.00	0.0792
1686.00	0.0800
1689.00	0.0807
1692.00	0.0803
1695.00	0.0804
1698.00	0.0812
1701.00	0.0817
1704.00	0.0813
1707.00	0.0815
1710.00	0.0824
1713.00	0.0832
1716.00	0.0838
1719.00	0.0838
1722.00	0.0840
1725.00	0.0844
1728.00	0.0853
1731.00	0.0860
1734.00	0.0859
1737.00	0.0860
1740.00	0.0863
1743.00	0.0872
1746.00	0.0875
1749.00	0.0873
1752.00	0.0880
1755.00	0.0886
1758.00	0.0891
1761.00	0.0891
1764.00	0.0897
1767.00	0.0903
1770.00	0.0907
1773.00	0.0907
1776.00	0.0913
1779.00	0.0913
1782.00	0.0917
1785.00	0.0925
1788.00	0.0925
1791.00	0.0927
1794.00	0.0933
1797.00	0.0939
1800.00	0.0941
1803.00	0.0948
1806.00	0.0952
1809.00	0.0953
1812.00	0.0956
1815.00	0.0956
1818.00	0.0958
1821.00	0.0960
1824.00	0.0970
1827.00	0.0975
1830.00	0.0975
1833.00	0.0979
1836.00	0.0985
1839.00	0.0986
1842.00	0.0987
1845.00	0.0985
1848.00	0.0982
1851.00	0.0983
1854.00	0.0993
1857.00	0.0997
1860.00	0.1003
1863.00	0.1001
1866.00	0.0999
1869.00	0.1009
1872.00	0.1018
1875.00	0.1019
1878.00	0.1016
1881.00	0.1016
1884.00	0.1015
1887.00	0.1014
1890.00	0.1019
1893.00	0.1019
1896.00	0.1017
1899.00	0.1027
1902.00	0.1045
1905.00	0.1051
1908.00	0.1046
1911.00	0.1046
1914.00	0.1044
1917.00	0.1044
1920.00	0.1046
1923.00	0.1048
1926.00	0.1054
1929.00	0.1049
1932.00	0.1047
1935.00	0.1055
1938.00	0.1060
1941.00	0.1069
1944.00	0.1069
1947.00	0.1070
1950.00	0.1069
1953.00	0.1063
1956.00	0.1069
1959.00	0.1073
1962.00	0.1076
1965.00	0.1074
1968.00	0.1078
1971.00	0.1084
1974.00	0.1084
1977.00	0.1089
1980.00	0.1090
1983.00	0.1087
1986.00	0.1091
1989.00	0.1094
1992.00	0.1100
1995.00	0.1096
1998.00	0.1097
2001.00	0.1106
2004.00	0.1107
2007.00	0.1102
2010.00	0.1110
2013.00	0.1109
2016.00	0.1108
2019.00	0.1107
2022.00	0.1112
2025.00	0.1113
2028.00	0.1105
2031.00	0.1109
2034.00	0.1113
2037.00	0.1118
2040.00	0.1114
2043.00	0.1114
2046.00	0.1125
2049.00	0.1119
2052.00	0.1127
2055.00	0.1138
2058.00	0.1131
2061.00	0.1126
2064.00	0.1136
2067.00	0.1138
2070.00	0.1139
2073.00	0.1129
2076.00	0.1128
2079.00	0.1135
2082.00	0.1138
2085.00	0.1141
2088.00	0.1143
2091.00	0.1140
2094.00	0.1139
2097.00	0.1132
2100.00	0.1138
2103.00	0.1140
2106.00	0.1137
2109.00	0.1137
2112.00	0.1146
2115.00	0.1150
2118.00	0.1153
2121.00	0.1146
2124.00	0.1145
2127.00	0.1148
2130.00	0.1155
2133.00	0.1152
2136.00	0.1153
2139.00	0.1146
2142.00	0.1144
2145.00	0.1156
2148.00	0.1154
2151.00	0.1148
2154.00	0.1146
2157.00	0.1148
2160.00	0.1149
2163.00	0.1143
2166.00	0.1153
2169.00	0.1156
2172.00	0.1150
2175.00	0.1149
2178.00	0.1159
2181.00	0.1163
2184.00	0.1168
2187.00	0.1160
2190.00	0.1154
2193.00	0.1151
2196.00	0.1143
2199.00	0.1148
2202.00	0.1148
2205.00	0.1155
2208.00	0.1138
2211.00	0.1139
2214.00	0.1151
2217.00	0.1154
2220.00	0.1149
2223.00	0.1143
2226.00	0.1147
2229.00	0.1145
2232.00	0.1145
2235.00	0.1155
2238.00	0.1149
2241.00	0.1156
2244.00	0.1170
2247.00	0.1156
2250.00	0.1150
2253.00	0.1156
2256.00	0.1159
2259.00	0.1157
2262.00	0.1159
2265.00	0.1162
2268.00	0.1161
2271.00	0.1156
2274.00	0.1154
2277.00	0.1160
2280.00	0.1159
2283.00	0.1149
2286.00	0.1149
2289.00	0.1156
2292.00	0.1157
2295.00	0.1155
2298.00	0.1155
2301.00	0.1154
2304.00	0.1155
2307.00	0.1159
2310.00	0.1156
2313.00	0.1152
2316.00	0.1152
2319.00	0.1149
2322.00	0.1153
2325.00	0.1155
2328.00	0.1153
2331.00	0.1153
2334.00	0.1156
2337.00	0.1152
2340.00	0.1152
2343.00	0.1151
2346.00	0.1153
2349.00	0.1152
2352.00	0.1155
2355.00	0.1157
2358.00	0.1149
2361.00	0.1151
2364.00	0.1156
2367.00	0.1156
2370.00	0.1156
2373.00	0.1154
2376.00	0.1153
2379.00	0.1152
2382.00	0.1145
2385.00	0.1146
2388.00	0.1154
2391.00	0.1152
2394.00	0.1146
2397.00	0.1150
2400.00	0.1155
2403.00	0.1142
2406.00	0.1145
2409.00	0.1149
2412.00	0.1148
2415.00	0.1147
2418.00	0.1150
2421.00	0.1146
2424.00	0.1141
2427.00	0.1146
2430.00	0.1144
2433.00	0.1135
2436.00	0.1137
2439.00	0.1143
2442.00	0.1142
2445.00	0.1142
2448.00	0.1137
2451.00	0.1139
2454.00	0.1147
2457.00	0.1141
2460.00	0.1139
2463.00	0.1135
2466.00	0.1128
2469.00	0.1123
2472.00	0.1126
2475.00	0.1131
2478.00	0.1141
2481.00	0.1132
2484.00	0.1120
2487.00	0.1124
2490.00	0.1128
2493.00	0.1126
2496.00	0.1121
2499.00	0.1114
2502.00	0.1125
2505.00	0.1129
2508.00	0.1129
2511.00	0.1132
2514.00	0.1130
2517.00	0.1131
2520.00	0.1129
2523.00	0.1126
2526.00	0.1122
2529.00	0.1119
2532.00	0.1120
2535.00	0.1122
2538.00	0.1122
2541.00	0.1123
2544.00	0.1116
2547.00	0.1109
2550.00	0.1100
2553.00	0.1100
2556.00	0.1097
2559.00	0.1099
2562.00	0.1117
2565.00	0.1121
2568.00	0.1115
2571.00	0.1116
2574.00	0.1116
2577.00	0.1113
2580.00	0.1111
2583.00	0.1110
2586.00	0.1099
2589.00	0.1087
2592.00	0.1094
2595.00	0.1107
2598.00	0.1092
2601.00	0.1086
2604.00	0.1084
2607.00	0.1081
2610.00	0.1083
2613.00	0.1092
2616.00	0.1096
2619.00	0.1096
2622.00	0.1087
2625.00	0.1085
2628.00	0.1091
2631.00	0.1095
2634.00	0.1087
2637.00	0.1082
2640.00	0.1080
2643.00	0.1074
2646.00	0.1071
2649.00	0.1066
2652.00	0.1057
2655.00	0.1058
2658.00	0.1060
2661.00	0.1060
2664.00	0.1049
2667.00	0.1061
2670.00	0.1066
2673.00	0.1075
2676.00	0.1084
2679.00	0.1072
2682.00	0.1050
2685.00	0.1030
2688.00	0.1033
2691.00	0.1058
2694.00	0.1121
2697.00	0.1175
2700.00	0.1264
2703.00	0.1340
2706.00	0.1440
2709.00	0.1525
2712.00	0.1658
2715.00	0.1773
2718.00	0.1843
2721.00	0.1862
2724.00	0.1825
2727.00	0.1767
2730.00	0.1705
2733.00	0.1652
2736.00	0.1593
2739.00	0.1507
2742.00	0.1447
2745.00	0.1354
2748.00	0.1308
2751.00	0.1233
2754.00	0.1167
2757.00	0.1103
2760.00	0.1025
2763.00	0.0990
2766.00	0.0940
2769.00	0.0920
2772.00	0.0885
2775.00	0.0863
2778.00	0.0849
2781.00	0.0837
2784.00	0.0827
2787.00	0.0821
2790.00	0.0821
2793.00	0.0820
2796.00	0.0826
2799.00	0.0820
2802.00	0.0825
2805.00	0.0824
2808.00	0.0827
2811.00	0.0835
2814.00	0.0837
2817.00	0.0845
2820.00	0.0855
2823.00	0.0865
2826.00	0.0871
2829.00	0.0878
2832.00	0.0883
2835.00	0.0893
2838.00	0.0904
2841.00	0.0911
2844.00	0.0919
2847.00	0.0925
2850.00	0.0931
2853.00	0.0937
2856.00	0.0942
2859.00	0.0948
2862.00	0.0954
2865.00	0.0955
2868.00	0.0959
2871.00	0.0960
2874.00	0.0962
2877.00	0.0965
2880.00	0.0965
2883.00	0.0968
2886.00	0.0970
2889.00	0.0973
2892.00	0.0973
2895.00	0.0976
2898.00	0.0977
2901.00	0.0977
2904.00	0.0977
2907.00	0.0978
2910.00	0.0977
2913.00	0.0980
2916.00	0.0981
2919.00	0.0985
2922.00	0.0985
2925.00	0.0980
2928.00	0.0978
2931.00	0.0974
2934.00	0.0973
2937.00	0.0977
2940.00	0.0977
2943.00	0.0981
2946.00	0.0977
2949.00	0.0976
2952.00	0.0972
2955.00	0.0970
2958.00	0.0972
2961.00	0.0973
2964.00	0.0975
2967.00	0.0978
2970.00	0.0980
2973.00	0.0984
2976.00	0.0982
2979.00	0.0981
2982.00	0.0979
2985.00	0.0976
2988.00	0.0976
2991.00	0.0970
2994.00	0.0973
2997.00	0.0982
3000.00	0.0990
3003.00	0.0993
3006.00	0.0998
3009.00	0.1002
3012.00	0.1000
3015.00	0.0998
3018.00	0.0998
3021.00	0.0998
3024.00	0.0997
3027.00	0.0997
3030.00	0.0997
3033.00	0.0998
3036.00	0.0995
3039.00	0.0998
3042.00	0.0994
3045.00	0.0992
3048.00	0.0988
3051.00	0.0989
3054.00	0.0987
3057.00	0.0988
3060.00	0.0993
3063.00	0.0995
3066.00	0.0999
3069.00	0.0996
3072.00	0.0996
3075.00	0.0990
3078.00	0.0987
3081.00	0.0983
3084.00	0.0978
3087.00	0.0978
3090.00	0.0978
3093.00	0.0979
3096.00	0.0976
3099.00	0.0973
3102.00	0.0973
3105.00	0.0975
3108.00	0.0970
3111.00	0.0966
3114.00	0.0968
3117.00	0.0967
3120.00	0.0963
3123.00	0.0960
3126.00	0.0961
3129.00	0.0963
3132.00	0.0962
3135.00	0.0958
3138.00	0.0958
3141.00	0.0959
3144.00	0.0953
3147.00	0.0949
3150.00	0.0948
3153.00	0.0947
3156.00	0.0936
3159.00	0.0935
3162.00	0.0931
3165.00	0.0931
3168.00	0.0928
3171.00	0.0927
3174.00	0.0938
3177.00	0.0940
3180.00	0.0943
3183.00	0.0953
3186.00	0.0956
3189.00	0.0961
3192.00	0.0956
3195.00	0.0959
3198.00	0.0964
3201.00	0.0959
3204.00	0.0957
3207.00	0.0942
3210.00	0.0941
3213.00	0.0940
3216.00	0.0935
3219.00	0.0937
3222.00	0.0944
3225.00	0.0958
3228.00	0.0961
3231.00	0.0947
3234.00	0.0948
3237.00	0.0947
3240.00	0.0936
3243.00	0.0926
3246.00	0.0902
3249.00	0.0914
3252.00	0.0901
3255.00	0.0905
3258.00	0.0888
3261.00	0.0901
3264.00	0.0904
3267.00	0.0901
3270.00	0.0888
3273.00	0.0858
3276.00	0.0842
3279.00	0.0863
3282.00	0.0904
3285.00	0.0910
3288.00	0.0927
3291.00	0.0938
3294.00	0.1019
3297.00	0.1064
3300.00	0.1096