File: Xyl_UV_VIS_0mM.txt
"20-30mM-1_Xylene0mM - RawData"
"Wavelength nm."	"Abs."
300.00	0.0391
303.00	0.0384
306.00	0.0375
309.00	0.0376
312.00	0.0369
315.00	0.0364
318.00	0.0365
321.00	0.0363
324.00	0.0364
327.00	0.0368
330.00	0.0369
333.00	0.0357
336.00	0.0392
339.00	0.0410
342.00	0.0406
345.00	0.0410
348.00	0.0417
351.00	0.0430
354.00	0.0446
357.00	0.0462
360.00	0.0476
363.00	0.0480
366.00	0.0521
369.00	0.0534
372.00	0.0537
375.00	0.0556
378.00	0.0572
381.00	0.0588
384.00	0.0605
387.00	0.0633
390.00	0.0661
393.00	0.0684
396.00	0.0703
399.00	0.0725
402.00	0.0749
405.00	0.0779
408.00	0.0807
411.00	0.0835
414.00	0.0865
417.00	0.0902
420.00	0.0936
423.00	0.0968
426.00	0.0998
429.00	0.1029
432.00	0.1069
435.00	0.1113
438.00	0.1159
441.00	0.1203
444.00	0.1250
447.00	0.1304
450.00	0.1354
453.00	0.1408
456.00	0.1465
459.00	0.1524
462.00	0.1586
465.00	0.1648
468.00	0.1710
471.00	0.1772
474.00	0.1838
477.00	0.1904
480.00	0.1968
483.00	0.2029
486.00	0.2091
489.00	0.2146
492.00	0.2201
495.00	0.2262
498.00	0.2318
501.00	0.2370
504.00	0.2422
507.00	0.2476
510.00	0.2525
513.00	0.2568
516.00	0.2601
519.00	0.2623
522.00	0.2646
525.00	0.2656
528.00	0.2654
531.00	0.2664
534.00	0.2659
537.00	0.2653
540.00	0.2658
543.00	0.2666
546.00	0.2671
549.00	0.2675
552.00	0.2674
555.00	0.2661
558.00	0.2633
561.00	0.2590
564.00	0.2541
567.00	0.2477
570.00	0.2400
573.00	0.2323
576.00	0.2246
579.00	0.2170
582.00	0.2105
585.00	0.2050
588.00	0.2005
591.00	0.1967
594.00	0.1940
597.00	0.1916
600.00	0.1893
603.00	0.1866
606.00	0.1825
609.00	0.1765
612.00	0.1692
615.00	0.1595
618.00	0.1491
621.00	0.1380
624.00	0.1263
627.00	0.1143
630.00	0.1027
633.00	0.0918
636.00	0.0815
639.00	0.0731
642.00	0.0657
645.00	0.0598
648.00	0.0547
651.00	0.0507
654.00	0.0463
657.00	0.0426
660.00	0.0405
663.00	0.0393
666.00	0.0379
669.00	0.0363
672.00	0.0359
675.00	0.0341
678.00	0.0321
681.00	0.0312
684.00	0.0308
687.00	0.0295
690.00	0.0285
693.00	0.0283
696.00	0.0278
699.00	0.0268
702.00	0.0265
705.00	0.0267
708.00	0.0259
711.00	0.0261
714.00	0.0249
717.00	0.0248
720.00	0.0243
723.00	0.0242
726.00	0.0226
729.00	0.0227
732.00	0.0226
735.00	0.0220
738.00	0.0218
741.00	0.0218
744.00	0.0212
747.00	0.0208
750.00	0.0212
753.00	0.0210
756.00	0.0204
759.00	0.0206
762.00	0.0203
765.00	0.0200
768.00	0.0199
771.00	0.0191
774.00	0.0185
777.00	0.0189
780.00	0.0185
783.00	0.0180
786.00	0.0186
789.00	0.0183
792.00	0.0175
795.00	0.0169
798.00	0.0150
801.00	0.0134
804.00	0.0125
807.00	0.0115
810.00	0.0112
813.00	0.0100
816.00	0.0092
819.00	0.0100
822.00	0.0104
825.00	0.0099
828.00	0.0096
831.00	0.0103
834.00	0.0102
837.00	0.0100
840.00	0.0100
843.00	0.0103
846.00	0.0101
849.00	0.0099
852.00	0.0099
855.00	0.0101
858.00	0.0095
861.00	0.0095
864.00	0.0098
867.00	0.0095
870.00	0.0091
873.00	0.0091
876.00	0.0093
879.00	0.0089
882.00	0.0090
885.00	0.0090
888.00	0.0084
891.00	0.0087
894.00	0.0087
897.00	0.0086
900.00	0.0084
903.00	0.0083
906.00	0.0084
909.00	0.0086
912.00	0.0084
915.00	0.0083
918.00	0.0082
921.00	0.0086
924.00	0.0082
927.00	0.0079
930.00	0.0079
933.00	0.0077
936.00	0.0078
939.00	0.0078
942.00	0.0079
945.00	0.0080
948.00	0.0078
951.00	0.0080
954.00	0.0081
957.00	0.0080
960.00	0.0078
963.00	0.0077
966.00	0.0079
969.00	0.0079
972.00	0.0075
975.00	0.0072
978.00	0.0075
981.00	0.0077
984.00	0.0078
987.00	0.0080
990.00	0.0079
993.00	0.0077
996.00	0.0078
999.00	0.0079
1002.00	0.0070
1005.00	0.0067
1008.00	0.0075
1011.00	0.0075
1014.00	0.0073
1017.00	0.0071
1020.00	0.0069
1023.00	0.0075
1026.00	0.0072
1029.00	0.0068
1032.00	0.0069
1035.00	0.0067
1038.00	0.0068
1041.00	0.0069
1044.00	0.0071
1047.00	0.0077
1050.00	0.0069
1053.00	0.0068
1056.00	0.0070
1059.00	0.0075
1062.00	0.0073
1065.00	0.0066
1068.00	0.0067
1071.00	0.0068
1074.00	0.0064
1077.00	0.0064
1080.00	0.0061
1083.00	0.0060
1086.00	0.0061
1089.00	0.0063
1092.00	0.0064
1095.00	0.0060
1098.00	0.0062
1101.00	0.0064
1104.00	0.0062
1107.00	0.0061
1110.00	0.0058
1113.00	0.0058
1116.00	0.0058
1119.00	0.0056
1122.00	0.0057
1125.00	0.0054
1128.00	0.0053
1131.00	0.0054
1134.00	0.0056
1137.00	0.0056
1140.00	0.0055
1143.00	0.0054
1146.00	0.0056
1149.00	0.0059
1152.00	0.0059
1155.00	0.0060
1158.00	0.0059
1161.00	0.0058
1164.00	0.0056
1167.00	0.0054
1170.00	0.0058
1173.00	0.0058
1176.00	0.0057
1179.00	0.0059
1182.00	0.0060
1185.00	0.0062
1188.00	0.0066
1191.00	0.0061
1194.00	0.0058
1197.00	0.0059
1200.00	0.0057
1203.00	0.0061
1206.00	0.0063
1209.00	0.0061
1212.00	0.0061
1215.00	0.0059
1218.00	0.0055
1221.00	0.0057
1224.00	0.0062
1227.00	0.0059
1230.00	0.0058
1233.00	0.0059
1236.00	0.0059
1239.00	0.0058
1242.00	0.0057
1245.00	0.0058
1248.00	0.0058
1251.00	0.0054
1254.00	0.0056
1257.00	0.0057
1260.00	0.0055
1263.00	0.0052
1266.00	0.0052
1269.00	0.0056
1272.00	0.0056
1275.00	0.0055
1278.00	0.0056
1281.00	0.0057
1284.00	0.0054
1287.00	0.0049
1290.00	0.0047
1293.00	0.0048
1296.00	0.0046
1299.00	0.0048
1302.00	0.0049
1305.00	0.0049
1308.00	0.0046
1311.00	0.0048
1314.00	0.0048
1317.00	0.0047
1320.00	0.0041
1323.00	0.0038
1326.00	0.0038
1329.00	0.0039
1332.00	0.0038
1335.00	0.0036
1338.00	0.0039
1341.00	0.0043
1344.00	0.0039
1347.00	0.0038
1350.00	0.0033
1353.00	0.0036
1356.00	0.0037
1359.00	0.0038
1362.00	0.0041
1365.00	0.0044
1368.00	0.0047
1371.00	0.0046
1374.00	0.0045
1377.00	0.0050
1380.00	0.0053
1383.00	0.0048
1386.00	0.0039
1389.00	0.0044
1392.00	0.0051
1395.00	0.0046
1398.00	0.0048
1401.00	0.0049
1404.00	0.0047
1407.00	0.0048
1410.00	0.0049
1413.00	0.0047
1416.00	0.0039
1419.00	0.0041
1422.00	0.0048
1425.00	0.0046
1428.00	0.0045
1431.00	0.0044
1434.00	0.0046
1437.00	0.0048
1440.00	0.0047
1443.00	0.0039
1446.00	0.0039
1449.00	0.0044
1452.00	0.0044
1455.00	0.0040
1458.00	0.0042
1461.00	0.0038
1464.00	0.0038
1467.00	0.0035
1470.00	0.0037
1473.00	0.0045
1476.00	0.0038
1479.00	0.0032
1482.00	0.0033
1485.00	0.0041
1488.00	0.0037
1491.00	0.0034
1494.00	0.0032
1497.00	0.0038
1500.00	0.0039
1503.00	0.0038
1506.00	0.0038
1509.00	0.0039
1512.00	0.0038
1515.00	0.0042
1518.00	0.0042
1521.00	0.0043
1524.00	0.0043
1527.00	0.0043
1530.00	0.0039
1533.00	0.0038
1536.00	0.0041
1539.00	0.0038
1542.00	0.0037
1545.00	0.0041
1548.00	0.0041
1551.00	0.0039
1554.00	0.0036
1557.00	0.0033
1560.00	0.0038
1563.00	0.0039
1566.00	0.0040
1569.00	0.0038
1572.00	0.0037
1575.00	0.0041
1578.00	0.0045
1581.00	0.0042
1584.00	0.0037
1587.00	0.0039
1590.00	0.0044
1593.00	0.0043
1596.00	0.0040
1599.00	0.0044
1602.00	0.0044
1605.00	0.0046
1608.00	0.0041
1611.00	0.0042
1614.00	0.0045
1617.00	0.0047
1620.00	0.0042
1623.00	0.0041
1626.00	0.0046
1629.00	0.0046
1632.00	0.0041
1635.00	0.0043
1638.00	0.0040
1641.00	0.0037
1644.00	0.0035
1647.00	0.0019
1650.00	0.0012
1653.00	0.0008
1656.00	0.0001
1659.00	-0.0008
1662.00	-0.0004
1665.00	-0.0006
1668.00	-0.0009
1671.00	-0.0010
1674.00	-0.0009
1677.00	-0.0008
1680.00	-0.0014
1683.00	-0.0015
1686.00	-0.0010
1689.00	-0.0007
1692.00	-0.0012
1695.00	-0.0016
1698.00	-0.0011
1701.00	-0.0008
1704.00	-0.0011
1707.00	-0.0012
1710.00	-0.0008
1713.00	-0.0002
1716.00	0.0001
1719.00	-0.0009
1722.00	-0.0014
1725.00	-0.0012
1728.00	-0.0006
1731.00	-0.0003
1734.00	-0.0004
1737.00	-0.0003
1740.00	-0.0002
1743.00	0.0003
1746.00	-0.0001
1749.00	-0.0005
1752.00	-0.0004
1755.00	-0.0003
1758.00	-0.0003
1761.00	-0.0004
1764.00	0.0002
1767.00	0.0004
1770.00	0.0001
1773.00	-0.0003
1776.00	-0.0000
1779.00	-0.0004
1782.00	-0.0002
1785.00	0.0003
1788.00	0.0002
1791.00	-0.0000
1794.00	0.0000
1797.00	0.0002
1800.00	0.0001
1803.00	0.0003
1806.00	0.0004
1809.00	0.0004
1812.00	0.0004
1815.00	-0.0002
1818.00	-0.0004
1821.00	-0.0003
1824.00	-0.0003
1827.00	0.0003
1830.00	0.0006
1833.00	0.0009
1836.00	0.0003
1839.00	0.0002
1842.00	0.0005
1845.00	0.0005
1848.00	-0.0001
1851.00	-0.0004
1854.00	0.0002
1857.00	0.0001
1860.00	0.0001
1863.00	-0.0004
1866.00	-0.0010
1869.00	-0.0002
1872.00	0.0006
1875.00	0.0005
1878.00	-0.0002
1881.00	-0.0005
1884.00	-0.0005
1887.00	-0.0004
1890.00	-0.0004
1893.00	-0.0007
1896.00	-0.0007
1899.00	0.0003
1902.00	0.0010
1905.00	0.0011
1908.00	0.0003
1911.00	0.0004
1914.00	0.0003
1917.00	0.0004
1920.00	0.0004
1923.00	0.0001
1926.00	0.0006
1929.00	0.0002
1932.00	-0.0002
1935.00	-0.0002
1938.00	0.0002
1941.00	0.0008
1944.00	0.0007
1947.00	0.0008
1950.00	0.0005
1953.00	-0.0000
1956.00	0.0006
1959.00	0.0008
1962.00	0.0009
1965.00	0.0004
1968.00	0.0005
1971.00	0.0010
1974.00	0.0005
1977.00	0.0009
1980.00	0.0012
1983.00	0.0005
1986.00	0.0008
1989.00	0.0009
1992.00	0.0013
1995.00	0.0011
1998.00	0.0010
2001.00	0.0015
2004.00	0.0012
2007.00	0.0008
2010.00	0.0006
2013.00	-0.0001
2016.00	0.0001
2019.00	0.0006
2022.00	0.0010
2025.00	0.0012
2028.00	0.0005
2031.00	0.0006
2034.00	0.0006
2037.00	0.0008
2040.00	0.0009
2043.00	0.0005
2046.00	0.0009
2049.00	0.0006
2052.00	0.0004
2055.00	0.0012
2058.00	0.0009
2061.00	0.0004
2064.00	0.0004
2067.00	0.0007
2070.00	0.0007
2073.00	-0.0003
2076.00	-0.0008
2079.00	-0.0002
2082.00	0.0005
2085.00	0.0008
2088.00	0.0009
2091.00	0.0002
2094.00	0.0002
2097.00	-0.0008
2100.00	-0.0001
2103.00	0.0001
2106.00	-0.0006
2109.00	-0.0008
2112.00	-0.0000
2115.00	0.0002
2118.00	0.0004
2121.00	-0.0001
2124.00	-0.0000
2127.00	0.0001
2130.00	-0.0000
2133.00	0.0003
2136.00	0.0005
2139.00	0.0005
2142.00	0.0000
2145.00	-0.0000
2148.00	0.0007
2151.00	0.0005
2154.00	-0.0003
2157.00	-0.0003
2160.00	0.0002
2163.00	0.0002
2166.00	0.0007
2169.00	0.0008
2172.00	0.0001
2175.00	0.0004
2178.00	0.0009
2181.00	0.0008
2184.00	0.0007
2187.00	0.0004
2190.00	0.0006
2193.00	0.0012
2196.00	0.0006
2199.00	0.0016
2202.00	0.0015
2205.00	0.0018
2208.00	0.0007
2211.00	0.0008
2214.00	0.0010
2217.00	0.0006
2220.00	0.0008
2223.00	0.0008
2226.00	0.0013
2229.00	0.0010
2232.00	0.0009
2235.00	0.0019
2238.00	0.0012
2241.00	0.0016
2244.00	0.0027
2247.00	0.0019
2250.00	0.0014
2253.00	0.0019
2256.00	0.0016
2259.00	0.0021
2262.00	0.0024
2265.00	0.0021
2268.00	0.0023
2271.00	0.0019
2274.00	0.0005
2277.00	0.0007
2280.00	0.0011
2283.00	0.0001
2286.00	0.0005
2289.00	0.0009
2292.00	0.0005
2295.00	0.0007
2298.00	0.0009
2301.00	0.0015
2304.00	0.0011
2307.00	0.0011
2310.00	0.0008
2313.00	0.0006
2316.00	0.0005
2319.00	0.0004
2322.00	0.0007
2325.00	0.0014
2328.00	0.0006
2331.00	0.0006
2334.00	0.0013
2337.00	0.0008
2340.00	0.0006
2343.00	0.0005
2346.00	0.0006
2349.00	0.0004
2352.00	0.0011
2355.00	0.0013
2358.00	0.0014
2361.00	0.0014
2364.00	0.0009
2367.00	0.0007
2370.00	0.0010
2373.00	0.0005
2376.00	0.0004
2379.00	0.0009
2382.00	0.0004
2385.00	0.0004
2388.00	0.0011
2391.00	0.0010
2394.00	0.0009
2397.00	0.0009
2400.00	0.0008
2403.00	-0.0001
2406.00	0.0006
2409.00	0.0012
2412.00	0.0010
2415.00	0.0008
2418.00	0.0016
2421.00	0.0014
2424.00	0.0007
2427.00	0.0004
2430.00	0.0010
2433.00	0.0006
2436.00	0.0011
2439.00	0.0015
2442.00	0.0014
2445.00	0.0010
2448.00	0.0012
2451.00	0.0014
2454.00	0.0014
2457.00	0.0005
2460.00	0.0012
2463.00	0.0012
2466.00	0.0013
2469.00	0.0012
2472.00	0.0010
2475.00	0.0010
2478.00	0.0008
2481.00	0.0005
2484.00	0.0007
2487.00	0.0008
2490.00	0.0007
2493.00	-0.0001
2496.00	0.0002
2499.00	0.0008
2502.00	0.0019
2505.00	0.0023
2508.00	0.0022
2511.00	0.0025
2514.00	0.0025
2517.00	0.0026
2520.00	0.0026
2523.00	0.0026
2526.00	0.0024
2529.00	0.0023
2532.00	0.0022
2535.00	0.0023
2538.00	0.0024
2541.00	0.0024
2544.00	0.0028
2547.00	0.0027
2550.00	0.0026
2553.00	0.0020
2556.00	0.0012
2559.00	0.0008
2562.00	0.0019
2565.00	0.0022
2568.00	0.0030
2571.00	0.0034
2574.00	0.0038
2577.00	0.0031
2580.00	0.0018
2583.00	0.0011
2586.00	0.0004
2589.00	0.0012
2592.00	0.0023
2595.00	0.0019
2598.00	-0.0001
2601.00	-0.0016
2604.00	-0.0009
2607.00	0.0003
2610.00	0.0023
2613.00	0.0033
2616.00	0.0035
2619.00	0.0032
2622.00	0.0019
2625.00	0.0023
2628.00	0.0022
2631.00	0.0028
2634.00	0.0031
2637.00	0.0036
2640.00	0.0039
2643.00	0.0042
2646.00	0.0046
2649.00	0.0044
2652.00	0.0041
2655.00	0.0030
2658.00	0.0019
2661.00	0.0014
2664.00	0.0007
2667.00	0.0035
2670.00	0.0090
2673.00	0.0123
2676.00	0.0163
2679.00	0.0182
2682.00	0.0206
2685.00	0.0252
2688.00	0.0326
2691.00	0.0386
2694.00	0.0457
2697.00	0.0506
2700.00	0.0616
2703.00	0.0681
2706.00	0.0751
2709.00	0.0735
2712.00	0.0738
2715.00	0.0686
2718.00	0.0663
2721.00	0.0613
2724.00	0.0589
2727.00	0.0572
2730.00	0.0574
2733.00	0.0537
2736.00	0.0504
2739.00	0.0443
2742.00	0.0436
2745.00	0.0439
2748.00	0.0442
2751.00	0.0432
2754.00	0.0386
2757.00	0.0371
2760.00	0.0349
2763.00	0.0334
2766.00	0.0300
2769.00	0.0279
2772.00	0.0262
2775.00	0.0252
2778.00	0.0251
2781.00	0.0242
2784.00	0.0229
2787.00	0.0220
2790.00	0.0219
2793.00	0.0218
2796.00	0.0215
2799.00	0.0200
2802.00	0.0183
2805.00	0.0163
2808.00	0.0150
2811.00	0.0143
2814.00	0.0136
2817.00	0.0132
2820.00	0.0123
2823.00	0.0115
2826.00	0.0111
2829.00	0.0105
2832.00	0.0102
2835.00	0.0095
2838.00	0.0087
2841.00	0.0085
2844.00	0.0080
2847.00	0.0075
2850.00	0.0073
2853.00	0.0069
2856.00	0.0065
2859.00	0.0061
2862.00	0.0061
2865.00	0.0059
2868.00	0.0058
2871.00	0.0056
2874.00	0.0054
2877.00	0.0052
2880.00	0.0049
2883.00	0.0049
2886.00	0.0046
2889.00	0.0046
2892.00	0.0043
2895.00	0.0041
2898.00	0.0039
2901.00	0.0039
2904.00	0.0037
2907.00	0.0036
2910.00	0.0036
2913.00	0.0035
2916.00	0.0031
2919.00	0.0030
2922.00	0.0027
2925.00	0.0025
2928.00	0.0028
2931.00	0.0030
2934.00	0.0030
2937.00	0.0029
2940.00	0.0030
2943.00	0.0031
2946.00	0.0032
2949.00	0.0031
2952.00	0.0028
2955.00	0.0028
2958.00	0.0026
2961.00	0.0025
2964.00	0.0027
2967.00	0.0026
2970.00	0.0028
2973.00	0.0030
2976.00	0.0028
2979.00	0.0024
2982.00	0.0022
2985.00	0.0021
2988.00	0.0025
2991.00	0.0027
2994.00	0.0028
2997.00	0.0029
3000.00	0.0035
3003.00	0.0037
3006.00	0.0041
3009.00	0.0041
3012.00	0.0041
3015.00	0.0039
3018.00	0.0039
3021.00	0.0038
3024.00	0.0039
3027.00	0.0041
3030.00	0.0040
3033.00	0.0038
3036.00	0.0036
3039.00	0.0035
3042.00	0.0032
3045.00	0.0032
3048.00	0.0031
3051.00	0.0035
3054.00	0.0040
3057.00	0.0045
3060.00	0.0052
3063.00	0.0055
3066.00	0.0057
3069.00	0.0053
3072.00	0.0052
3075.00	0.0046
3078.00	0.0041
3081.00	0.0039
3084.00	0.0040
3087.00	0.0038
3090.00	0.0036
3093.00	0.0038
3096.00	0.0039
3099.00	0.0035
3102.00	0.0034
3105.00	0.0037
3108.00	0.0039
3111.00	0.0039
3114.00	0.0041
3117.00	0.0040
3120.00	0.0037
3123.00	0.0033
3126.00	0.0029
3129.00	0.0029
3132.00	0.0028
3135.00	0.0030
3138.00	0.0031
3141.00	0.0033
3144.00	0.0030
3147.00	0.0032
3150.00	0.0030
3153.00	0.0031
3156.00	0.0029
3159.00	0.0035
3162.00	0.0029
3165.00	0.0031
3168.00	0.0037
3171.00	0.0042
3174.00	0.0048
3177.00	0.0049
3180.00	0.0056
3183.00	0.0057
3186.00	0.0055
3189.00	0.0060
3192.00	0.0047
3195.00	0.0042
3198.00	0.0036
3201.00	0.0032
3204.00	0.0022
3207.00	0.0009
3210.00	0.0019
3213.00	0.0025
3216.00	0.0026
3219.00	0.0043
3222.00	0.0051
3225.00	0.0067
3228.00	0.0067
3231.00	0.0061
3234.00	0.0063
3237.00	0.0050
3240.00	0.0047
3243.00	0.0035
3246.00	0.0029
3249.00	0.0016
3252.00	0.0016
3255.00	0.0014
3258.00	0.0018
3261.00	0.0025
3264.00	0.0027
3267.00	0.0017
3270.00	0.0001
3273.00	-0.0011
3276.00	-0.0028
3279.00	-0.0035
3282.00	-0.0014
3285.00	-0.0011
3288.00	0.0004
3291.00	0.0029
3294.00	0.0079
3297.00	0.0127
3300.00	0.0147